Time [ms],ACC_X [mg],ACC_Y [mg],ACC_Z [mg],GYRO_X [dps],GYRO_Y [dps],GYRO_Z [dps],MAG_X [uT],MAG_Y [uT],MAG_Z [uT]
8950003.0,-420.898407,-687.98822,604.980469,-3.480916,3.549618,-0.450382,6.0,-47.850002,17.25
9120872.0,-348.144501,-520.996094,638.183594,-1.900763,5.465649,2.427481,4.65,-47.700001,16.950001
9294021.0,-292.480469,-630.859375,661.621033,0.763359,3.687023,1.496183,6.15,-47.700001,16.650002
9464381.0,-509.277313,-755.859314,561.035156,2.984733,0.412214,-0.198473,4.65,-47.25,16.950001
9636830.0,-431.152313,-787.597595,633.789063,-0.908397,3.10687,0.519084,4.8,-47.400002,17.25
9807626.0,-371.093719,-687.011658,622.070313,-3.832061,7.068702,1.633588,4.65,-47.25,16.650002
9978228.0,-352.050751,-600.585938,736.816345,-1.59542,1.977099,0.259542,5.1,-47.25,16.950001
10150514.0,-337.402313,-802.246033,716.308533,2.030534,0.145038,1.984733,4.8,-47.850002,17.550001
10321114.0,-517.089844,-890.136658,554.199219,-2.282443,5.694656,-0.671756,5.1,-47.700001,17.400002
10491837.0,-455.078094,-659.179626,499.999969,-4.038168,4.244275,-0.221374,5.4,-47.25,17.700001
10664252.0,-356.445282,-667.480408,653.320251,-1.847328,3.038168,-0.145038,5.4,-46.800003,17.700001
10834752.0,-381.347626,-633.300781,751.953064,-1.320611,5.29771,0.221374,5.4,-47.25,17.400002
11005209.0,-394.531219,-686.523376,584.960938,3.068702,-0.503817,-0.679389,6.0,-48.600002,17.25
11177634.0,-470.703094,-895.507751,548.828125,-3.946565,6.572519,1.625954,5.55,-47.400002,17.25
11348211.0,-435.546844,-633.789063,551.269531,-3.175573,3.793893,0.0,5.4,-48.0,16.950001
11518618.0,-338.378876,-713.378845,666.015564,-0.419847,2.740458,2.244275,4.35,-48.0,17.400002
11716345.0,-515.136719,-723.632751,555.664063,0.038168,-0.267176,2.068702,5.85,-47.25,16.950001
11884806.0,-427.734344,-611.816406,620.605469,-7.465649,4.641222,-0.045802,6.0,-47.400002,18.300001
12053905.0,-322.265594,-564.941406,687.011658,-2.038168,4.38168,0.625954,5.4,-48.0,17.700001
12224720.0,-425.781219,-680.17572,687.499939,-1.068702,2.503817,1.076336,4.5,-46.650002,17.25
12393867.0,-405.761688,-780.761658,645.507751,-0.854962,4.977099,-2.068702,5.4,-48.450001,17.700001
12562978.0,-449.707001,-793.45697,658.691345,-2.770992,4.419847,-0.206107,5.85,-48.450001,16.200001
12733972.0,-349.609344,-561.523438,695.80072,-2.045802,4.458015,0.312977,5.4,-47.700001,17.400002
12902932.0,-274.902344,-658.691345,739.257751,0.679389,-0.992366,-2.625954,5.4,-47.25,16.650002
13072083.0,-380.859344,-772.460876,647.949158,0.015267,2.557252,3.175573,5.1,-48.0,16.950001
13243205.0,-463.378876,-674.316345,581.542969,-2.19084,4.961832,0.160305,5.55,-48.300003,16.800001
13413757.0,-380.371063,-588.867188,611.816406,-5.389313,5.358778,-0.114504,4.5,-47.400002,16.800001
13584173.0,-253.417953,-584.472656,668.45697,-0.916031,3.961832,-0.435115,4.35,-48.0,16.650002
13756589.0,-413.085907,-670.898376,640.625,4.29771,0.977099,-2.480916,5.25,-47.400002,16.800001
13927280.0,-415.527313,-795.898376,626.953125,-1.206107,1.412214,-1.564885,5.4,-47.700001,16.950001
14097866.0,-420.898407,-673.828064,602.539063,-2.068702,2.984733,1.091603,5.4,-47.25,16.650002
14270997.0,-374.999969,-598.632813,638.183594,-3.061069,3.450382,2.145038,4.8,-48.600002,16.5
14441807.0,-256.347656,-591.308594,687.98822,-1.89313,2.580153,2.122137,5.85,-47.25,16.950001
14612852.0,-397.949188,-705.566345,658.691345,3.526718,1.038168,-1.099237,5.4,-48.0,16.950001
14785620.0,-393.554657,-696.289001,628.417969,-0.51145,1.274809,0.763359,6.45,-47.400002,16.5
14956336.0,-472.656219,-672.851501,566.40625,-0.862595,6.167939,0.160305,5.1,-48.450001,16.950001
15127116.0,-374.999969,-569.824219,632.8125,-5.557252,4.259542,-0.030534,6.15,-48.450001,17.400002
15299987.0,-324.218719,-575.683594,697.265564,-0.557252,2.419847,0.40458,5.1,-47.25,15.900001
15470945.0,-310.546875,-681.640564,725.097595,2.59542,-0.816794,-0.396947,4.65,-49.200001,16.650002
15641882.0,-369.140594,-709.960876,608.886719,-0.328244,2.351145,0.946565,5.4,-48.900002,16.950001
15818027.0,-419.921844,-794.433533,607.910156,-1.496183,0.732824,-0.129771,5.1,-48.900002,16.200001
15992645.0,-497.070282,-800.292908,580.078125,0.343511,5.183206,1.381679,6.9,-48.0,17.700001
16167054.0,-463.867157,-738.281189,528.320313,-4.694656,4.290076,-1.969466,5.25,-47.850002,17.550001
16345532.0,-444.824188,-708.496033,554.199219,0.259542,2.717557,0.29771,4.35,-47.25,15.900001
16521759.0,-455.078094,-665.039001,597.65625,-1.961832,3.129771,0.80916,4.8,-47.400002,17.550001
16698268.0,-444.824188,-814.453064,633.300781,-2.801527,3.381679,0.312977,5.4,-47.700001,16.650002
16876460.0,-445.800751,-642.089844,593.261719,-5.099236,4.244275,1.671756,4.5,-49.050003,17.25
17055232.0,-447.265594,-667.968689,531.25,-2.580153,2.358779,2.206107,4.5,-47.400002,18.0
17234456.0,-429.687469,-621.09375,601.074219,-2.725191,5.351145,0.381679,6.0,-48.600002,18.300001
27262192.0,-491.210907,-798.339783,555.664063,0.59542,1.862595,3.236641,4.8,-47.100002,18.0
27444804.0,-403.808563,-598.144531,612.792969,-0.259542,2.221374,1.977099,5.25,-48.300003,17.25
27627626.0,-387.207001,-614.746094,702.148376,-0.801527,0.480916,2.251908,4.8,-48.300003,16.800001
27812520.0,-382.812469,-574.707031,692.871033,-1.938931,2.984733,-0.29771,5.1,-48.0,16.650002
27995676.0,-487.304657,-685.058533,540.527344,-3.89313,3.679389,-1.946565,5.1,-48.450001,17.700001
28179084.0,-515.625,-688.476501,597.65625,-1.206107,3.51145,0.656489,5.25,-47.850002,16.800001
28364696.0,-409.179657,-678.710876,600.097656,0.374046,0.992366,-1.503817,5.1,-48.450001,17.400002
28547758.0,-273.925781,-672.36322,734.86322,0.564885,0.671756,1.068702,4.65,-46.800003,16.950001
28732726.0,-395.996063,-711.914001,621.09375,-1.70229,5.412214,1.312977,5.85,-48.450001,16.950001
28916100.0,-391.113251,-743.164001,664.55072,-3.419847,4.931298,2.877863,4.8,-46.650002,17.550001
29940702.0,-355.957001,-554.199219,694.824158,-2.351145,2.70229,3.458015,5.4,-48.450001,16.950001
30126026.0,-469.726532,-685.546814,520.507813,-5.152672,4.641222,1.526718,4.8,-47.400002,16.5
30309368.0,-461.425751,-747.070251,604.492188,-1.78626,2.946565,0.351145,5.85,-48.900002,16.950001
30492992.0,-419.921844,-715.820251,628.90625,-0.251908,0.969466,-1.557252,4.5,-47.400002,17.25
30678238.0,-252.441391,-665.039001,745.605408,-0.458015,3.618321,-0.320611,6.45,-47.850002,17.550001
30861696.0,-321.289032,-678.222595,649.902283,-1.038168,3.366412,-1.206107,5.25,-48.600002,17.25
31045072.0,-409.179657,-770.01947,681.640564,-3.198473,3.267176,1.389313,4.8,-47.850002,16.800001
31231022.0,-483.886688,-894.531189,542.480469,-1.480916,3.687023,1.610687,5.55,-48.600002,16.5
31414488.0,-392.578094,-694.335876,605.46875,1.175573,2.671756,0.129771,5.55,-48.300003,18.0
31597972.0,-332.031219,-610.351563,666.992126,-0.091603,2.236641,-0.053435,4.65,-47.25,17.700001
32639820.0,-410.156219,-615.722656,628.417969,-5.992366,5.633588,0.48855,4.8,-47.100002,16.050001
32822966.0,-409.179657,-770.01947,626.953125,-1.160305,3.450382,-0.641221,4.5,-47.100002,16.050001
33006290.0,-365.234344,-759.277283,632.324219,-0.473282,1.045802,-1.160305,4.5,-49.050003,16.050001
33191244.0,-312.988281,-750.48822,703.61322,0.519084,1.007634,1.137405,4.5,-47.850002,17.25
33374244.0,-398.437469,-577.148438,607.421875,-0.251908,3.045802,0.946565,4.8,-47.850002,15.750001
5469126.0,-186.035141,-706.054626,692.871033,1.320611,0.473282,0.503817,5.4,-49.650002,16.650002
5654506.0,-447.753876,-577.636719,611.328125,2.839695,2.274809,0.671756,5.55,-49.800003,14.55
5837724.0,-327.636688,-618.164063,555.175781,3.267176,1.664122,0.152672,5.85,-47.25,14.700001
6023837.0,-355.957001,-641.113281,631.347656,-3.503817,5.793893,0.549618,5.55,-47.100002,15.3
6207199.0,-449.218719,-576.660156,619.140625,0.625954,2.877863,-0.854962,5.85,-47.700001,15.900001
6390411.0,-166.503891,-651.855408,737.304626,-0.465649,3.40458,2.145038,7.2,-47.850002,16.050001
6575480.0,-434.570282,-563.964844,681.152283,0.961832,1.564885,-0.068702,5.85,-47.25,15.450001
6759015.0,-350.585907,-597.167969,548.339844,3.740458,3.015267,-0.755725,5.4,-47.700001,14.700001
6942352.0,-440.429657,-592.773438,641.601563,-2.938931,3.916031,1.610687,6.0,-49.050003,14.55
7127524.0,-392.578094,-499.999969,670.410095,0.412214,2.244275,1.954198,4.65,-48.450001,16.200001
7310806.0,-221.679672,-715.33197,693.359314,3.419847,-0.641221,-1.366412,5.85,-48.450001,15.900001
7494331.0,-468.749969,-625.488281,574.707031,1.877863,1.503817,1.862595,6.0,-46.650002,16.050001
7679399.0,-409.667938,-750.48822,525.390625,1.389313,1.40458,-0.175573,5.1,-48.0,15.450001
7862565.0,-320.3125,-620.117188,638.671875,-2.076336,4.267176,1.549618,5.4,-47.700001,14.400001
8045656.0,-402.343719,-573.242188,639.160156,3.946565,1.480916,0.587786,6.0,-48.300003,15.750001
8231463.0,-206.054672,-702.636658,697.265564,4.236641,-0.114504,-0.648855,6.15,-48.900002,16.200001
8414719.0,-438.476532,-568.847656,565.429688,1.358779,-0.21374,0.305344,5.85,-48.0,14.400001
8597866.0,-368.164032,-597.65625,528.320313,1.114504,0.244275,-2.114504,5.25,-47.400002,15.3
8782946.0,-340.332001,-582.519531,652.343689,-1.442748,6.175572,1.946565,5.55,-48.600002,16.050001
8966400.0,-428.222626,-590.332031,615.722656,1.206107,1.022901,0.328244,6.15,-47.700001,15.150001
9149634.0,-186.523422,-739.257751,694.335876,2.793893,1.824427,-0.641221,6.0,-48.600002,16.800001
9334575.0,-495.117157,-645.996033,556.152344,2.557252,0.854962,0.839695,6.15,-47.25,15.900001
9517707.0,-387.207001,-666.503845,505.859344,0.030534,1.389313,0.053435,5.55,-47.850002,15.750001
9701131.0,-428.710907,-653.320251,638.671875,-1.374046,3.221374,2.045802,5.85,-48.0,14.700001
9886211.0,-388.671844,-612.304688,729.980408,-2.251908,2.78626,1.381679,6.45,-48.300003,16.5
10068933.0,-227.050766,-556.640625,728.027283,-0.854962,4.534351,2.160305,6.0,-47.100002,15.750001
10251780.0,-362.792938,-713.867126,626.464844,-0.572519,1.305344,1.885496,5.55,-48.300003,16.050001
10464391.0,-291.015625,-598.632813,577.636719,-3.007634,3.320611,0.793893,5.1,-48.900002,15.150001
10645148.0,-421.386688,-591.796875,685.058533,0.664122,-0.687023,-0.366412,4.8,-47.400002,15.750001
10826818.0,-146.484375,-698.242126,708.496033,1.099237,-0.137405,1.587786,6.15,-49.200001,15.450001
11010308.0,-420.410126,-627.929688,622.070313,1.763359,2.045802,1.961832,6.0,-49.050003,15.750001
11192158.0,-390.136688,-704.589783,588.378906,0.618321,2.709924,-0.671756,6.15,-47.25,15.450001
11373897.0,-236.816391,-526.855469,636.71875,-3.053435,4.59542,1.10687,5.25,-47.850002,15.750001
11557341.0,-373.535126,-580.566406,619.628906,1.335878,4.755725,0.251908,6.75,-48.300003,14.55
11739066.0,-339.843719,-794.921814,697.265564,2.198473,0.839695,-1.916031,5.4,-48.450001,16.650002
11920768.0,-450.195282,-661.621033,580.566406,0.465649,-0.198473,1.389313,6.6,-47.25,15.150001
12104234.0,-520.019531,-685.546814,580.078125,2.992366,0.70229,-1.10687,5.4,-49.200001,14.700001
12287198.0,-434.570282,-662.597595,660.156189,1.526718,2.251908,-0.167939,6.6,-47.700001,15.900001
12470165.0,-441.894501,-715.33197,603.515625,2.862595,4.396946,0.160305,4.5,-48.600002,15.750001
12655278.0,-486.328094,-909.667908,631.835938,2.282443,-0.259542,-0.938931,6.0,-48.600002,15.3
12838293.0,-509.277313,-698.730408,526.367188,0.977099,1.618321,1.717557,6.0,-48.600002,15.750001
13021432.0,-399.902313,-655.273376,525.390625,0.648855,1.78626,2.51145,5.55,-47.400002,15.3
13206843.0,-321.289032,-592.773438,655.273376,0.442748,3.709924,0.755725,7.35,-47.850002,16.050001
13390264.0,-394.531219,-534.667969,639.160156,2.206107,-0.007634,-1.793893,6.15,-49.650002,16.200001
13573318.0,-201.17186,-693.847595,674.804626,3.114504,-0.541985,0.847328,5.85,-49.200001,15.900001
13758180.0,-471.191376,-557.128906,577.636719,1.549618,1.007634,0.022901,4.8,-47.850002,14.55
13941084.0,-372.070282,-640.136719,541.503906,2.862595,3.427481,1.381679,5.55,-48.300003,14.55
14124521.0,-383.789032,-546.875,646.484314,-1.206107,6.442748,1.80916,6.0,-47.400002,15.3
14309429.0,-407.714813,-555.664063,648.92572,1.343511,2.244275,-0.832061,5.85,-48.0,15.450001
14492490.0,-492.675751,-919.433533,561.523438,-0.549618,5.396946,2.916031,5.85,-48.0,16.950001
24460314.0,-468.261688,-768.554626,524.414063,0.961832,3.427481,1.007634,6.15,-48.450001,14.700001
24645476.0,-363.281219,-627.929688,627.929688,0.59542,2.351145,-0.549618,6.15,-48.450001,14.700001
24828644.0,-431.640594,-611.328125,590.820313,0.21374,2.610687,0.80916,6.0,-49.500004,15.3
25012118.0,-211.914047,-743.164001,682.128845,1.671756,1.839695,2.984733,5.55,-48.600002,16.5
25196934.0,-467.773407,-623.535156,598.144531,0.335878,1.29771,-0.862595,5.55,-47.850002,15.750001
25378808.0,-396.484344,-673.339783,548.828125,0.076336,0.480916,-0.145038,5.55,-48.450001,15.150001
25562066.0,-370.605438,-643.554626,631.347656,-2.206107,7.045802,0.961832,6.45,-47.850002,14.55
25747464.0,-379.882782,-619.628906,752.441345,-1.175573,3.167939,2.305344,5.4,-47.700001,15.900001
25930594.0,-184.570297,-708.496033,695.312439,0.679389,5.114504,0.954198,5.55,-48.300003,15.3
26113690.0,-483.398407,-903.808533,544.433594,-1.610687,3.755725,0.335878,5.85,-48.0,16.200001
27047572.0,-544.433594,-759.277283,517.578125,-1.137405,3.328244,1.099237,6.45,-48.600002,16.050001
27230932.0,-445.312469,-750.976501,654.785095,0.503817,2.419847,-0.435115,5.55,-48.600002,16.050001
27414200.0,-404.785126,-752.929626,593.261719,1.335878,2.480916,0.458015,6.0,-48.300003,16.050001
27599244.0,-545.410156,-874.511658,636.230469,2.068702,0.687023,-3.335878,5.55,-47.400002,16.5
27782340.0,-477.050751,-634.765625,588.867188,1.015267,1.412214,-0.610687,4.35,-48.450001,15.150001
27965756.0,-386.230438,-676.757751,588.378906,2.259542,2.717557,0.770992,7.5,-48.300003,15.000001
28151396.0,-243.652328,-564.453125,621.582031,-2.717557,4.358778,2.251908,5.85,-47.25,16.650002
28334544.0,-354.003876,-598.632813,729.003845,-0.748092,2.671756,-0.70229,6.0,-47.850002,15.750001
28519494.0,-216.308578,-708.496033,666.992126,-0.320611,3.480916,0.870229,5.55,-48.300003,15.000001
28702936.0,-358.886688,-649.414001,700.195251,-0.366412,2.351145,-2.473282,5.25,-48.300003,16.800001
29645570.0,-422.851532,-659.179626,641.113281,-0.572519,4.358778,-0.152672,5.1,-48.450001,16.200001
29830782.0,-537.597656,-621.09375,600.097656,-5.175572,5.748092,1.977099,5.55,-48.300003,15.3
30014116.0,-299.316406,-529.296875,717.773376,-4.167939,5.274809,-0.916031,5.25,-49.050003,15.3
30197516.0,-304.199219,-479.003876,653.320251,-2.824427,4.641222,2.908397,6.45,-48.600002,14.55
30382992.0,-336.425751,-571.777344,688.476501,-1.694656,6.08397,-0.061069,5.85,-49.200001,15.150001
30566288.0,-301.269531,-655.273376,645.507751,0.137405,3.221374,0.48855,5.25,-48.300003,15.750001
30749288.0,-463.867157,-598.632813,625.976563,-3.687023,4.419847,-0.122137,5.4,-48.0,15.450001
30934950.0,-330.078094,-561.523438,759.277283,-2.152672,1.40458,-0.251908,5.85,-48.450001,15.900001
31118726.0,-201.660141,-648.92572,737.792908,-0.977099,4.389313,1.267176,5.85,-48.0,16.650002
31302096.0,-486.816376,-631.835938,602.050781,0.229008,1.206107,2.412214,4.05,-48.600002,16.050001
32248612.0,-351.562469,-570.800781,557.128906,1.29771,1.938931,-1.603053,5.1,-48.900002,15.150001
32431756.0,-313.476563,-523.925781,643.066345,0.541985,2.427481,0.099237,4.65,-48.450001,16.200001
32615168.0,-421.386688,-580.566406,599.609375,-0.198473,3.229008,0.083969,4.8,-47.400002,15.750001
32800128.0,-212.402328,-789.55072,660.156189,2.664122,1.10687,-0.885496,5.85,-48.0,16.950001
32983248.0,-475.097626,-685.546814,533.203125,2.251908,2.068702,-0.015267,6.45,-48.300003,15.750001
33166266.0,-329.101532,-706.542908,588.378906,0.763359,1.083969,1.618321,6.45,-47.850002,15.750001
33351344.0,-356.933563,-649.902283,639.648438,1.442748,3.412214,1.801527,5.4,-47.25,15.450001
33534580.0,-438.476532,-710.449158,609.375,-0.572519,3.167939,-0.427481,5.1,-48.900002,15.150001
33717664.0,-215.332016,-804.687439,635.253906,3.450382,-0.824427,-0.80916,5.85,-48.900002,14.400001
33903052.0,-548.828125,-865.722595,538.574219,-0.877863,3.847328,1.763359,5.25,-48.300003,15.3
34841384.0,-544.921875,-750.976501,538.085938,-0.709924,3.145038,-0.732824,6.6,-48.450001,14.400001
35024736.0,-324.707001,-610.351563,612.304688,-1.068702,1.229008,1.618321,5.85,-48.0,15.150001
35209584.0,-432.128876,-620.605469,625.976563,0.908397,2.908397,-0.015267,5.85,-47.25,15.150001
35392696.0,-433.105438,-830.566345,665.039001,1.259542,1.656489,-1.114504,5.1,-48.450001,15.450001
35575872.0,-469.238251,-685.546814,551.757813,-0.549618,2.274809,-0.725191,4.65,-48.450001,14.700001
35761176.0,-415.527313,-702.636658,552.246094,1.832061,0.282443,-1.725191,5.4,-49.650002,16.950001
35944320.0,-276.367188,-588.867188,610.839844,-3.480916,3.450382,-0.099237,5.85,-47.700001,15.900001
36127296.0,-428.222626,-604.492188,690.917908,-0.21374,3.290076,0.961832,6.0,-48.600002,15.3
36312152.0,-254.882797,-803.222595,666.015564,0.221374,1.931298,-0.007634,5.85,-48.0,16.200001
36495596.0,-330.078094,-598.144531,692.382751,-3.030534,1.885496,-1.083969,4.5,-47.850002,15.3
37444036.0,-422.363251,-679.687439,580.078125,-3.198473,4.145038,-0.70229,5.25,-48.600002,16.050001
37629696.0,-472.167938,-813.476501,540.039063,-2.862595,2.908397,0.10687,4.8,-47.100002,15.000001
37812960.0,-393.066376,-718.261658,606.445313,-5.580153,5.038168,1.007634,5.85,-47.700001,16.950001
37996348.0,-457.031219,-742.67572,560.546875,-5.175572,2.557252,0.007634,5.4,-48.450001,15.900001
38181304.0,-379.882782,-752.441345,626.464844,-1.351145,4.763359,0.885496,6.45,-48.600002,16.050001
38364544.0,-488.769501,-834.960876,663.085876,-1.290076,2.40458,0.374046,4.5,-48.600002,15.000001
38547768.0,-370.117157,-835.449158,604.003906,0.038168,2.206107,1.877863,6.0,-48.600002,15.750001
38733008.0,-515.136719,-714.843689,415.039032,-3.748092,4.946565,0.832061,6.9,-47.700001,16.200001
38916204.0,-508.300751,-832.031189,478.027313,-2.603053,4.244275,2.282443,6.15,-48.450001,15.450001
39101272.0,-475.585907,-741.210876,521.972656,-3.916031,5.839694,1.183206,5.4,-48.900002,15.150001
40048400.0,-367.187469,-860.839783,568.359375,-1.908397,2.709924,1.664122,4.65,-48.450001,15.900001
40257564.0,-390.624969,-697.265564,556.152344,-7.900764,6.274809,1.465649,6.6,-47.700001,16.200001
40438068.0,-346.679657,-468.749969,646.484314,-5.305344,6.526718,0.251908,4.35,-47.700001,15.900001
40619532.0,-275.390625,-591.796875,716.308533,-1.10687,3.748092,0.671756,4.65,-49.200001,14.700001
40803076.0,-458.007782,-677.246033,678.222595,-0.442748,0.992366,0.40458,6.0,-48.300003,15.000001
40984244.0,-544.433594,-632.324219,584.472656,-3.381679,4.068702,0.053435,6.45,-47.850002,15.000001
41165860.0,-339.843719,-566.894531,668.945251,-4.435114,5.206107,-0.70229,5.25,-47.850002,15.3
41349228.0,-386.230438,-512.207031,657.226501,-3.847328,5.045802,2.801527,6.75,-47.100002,15.750001
41530780.0,-332.519501,-673.339783,688.476501,-0.717557,3.145038,0.229008,6.6,-47.25,15.450001
41712360.0,-385.253876,-589.84375,607.910156,0.694656,3.618321,-0.519084,5.4,-48.450001,15.150001
42648808.0,-462.890594,-587.402344,629.394531,-4.022901,4.122138,0.801527,6.45,-49.050003,14.250001
42831992.0,-381.347626,-641.113281,765.136658,-0.725191,1.312977,-1.335878,5.4,-49.200001,17.400002
43015052.0,-379.394501,-554.199219,681.640564,-2.557252,3.633588,2.480916,5.55,-47.400002,15.000001
43199660.0,-313.964844,-702.148376,689.941345,-2.160305,3.198473,0.580153,5.55,-49.050003,15.750001
43383052.0,-388.671844,-655.273376,569.335938,0.038168,2.78626,-0.007634,5.1,-47.700001,16.200001
43566248.0,-410.156219,-906.249939,528.320313,-2.335878,4.099236,1.732824,5.1,-49.200001,15.450001
43751768.0,-357.910126,-635.253906,617.675781,-6.183206,6.030534,-0.687023,5.85,-49.200001,16.950001
43934936.0,-411.132782,-719.23822,618.164063,-4.625954,4.770992,0.007634,5.4,-47.25,15.900001
44118364.0,-378.906219,-745.117126,630.859375,-2.167939,4.832061,2.564885,4.5,-48.600002,16.050001
44303380.0,-437.499969,-813.476501,603.515625,-2.320611,4.717557,-0.091603,5.25,-49.500004,15.000001
45244508.0,-361.328094,-869.140564,583.984375,-0.061069,0.992366,-0.78626,6.15,-47.700001,15.450001
45427508.0,-623.046875,-835.449158,490.722626,-2.854962,4.389313,-0.618321,5.85,-48.450001,16.200001
45612192.0,-458.984344,-823.730408,497.070282,-2.587786,4.068702,1.534351,5.25,-47.850002,14.55
45795520.0,-441.406219,-705.566345,527.832031,-0.251908,2.908397,2.030534,5.55,-47.850002,15.3
45978588.0,-348.632782,-671.874939,644.531189,1.969466,2.343511,-0.022901,4.5,-49.050003,16.050001
46163624.0,-402.832001,-630.371094,636.71875,2.572519,-0.175573,1.351145,6.75,-49.500004,16.5
46346824.0,-502.929657,-906.73822,626.464844,0.89313,-1.450382,-0.206107,5.4,-48.900002,16.650002
46530224.0,-516.601563,-700.195251,569.335938,0.396947,2.450382,1.664122,5.85,-48.450001,18.900002
46715104.0,-479.980438,-668.45697,561.523438,-1.923664,3.435115,1.038168,5.85,-48.0,17.400002
46897696.0,-269.042969,-554.199219,678.222595,0.80916,4.053435,1.152672,6.15,-48.450001,15.150001
47843152.0,-372.070282,-559.570313,680.664001,4.007634,0.671756,0.931298,6.15,-47.700001,16.650002
48027652.0,-363.769501,-852.539001,634.765625,1.725191,2.167939,-0.984733,6.45,-46.650002,16.050001
48210308.0,-493.164032,-656.73822,512.695313,1.40458,2.51145,1.587786,5.25,-47.400002,16.050001
48392864.0,-365.234344,-645.507751,559.082031,2.038168,1.877863,0.267176,5.25,-47.400002,16.800001
48577252.0,-306.152344,-587.402344,629.882813,-3.320611,4.091603,-0.129771,5.55,-47.400002,16.5
48760056.0,-379.394501,-601.074219,648.92572,-1.229008,4.419847,-0.450382,6.6,-48.0,16.650002
48942728.0,-210.937485,-675.292908,698.242126,3.091603,0.328244,-1.442748,6.15,-46.5,14.700001
49127172.0,-461.425751,-690.917908,584.960938,2.656489,2.778626,-0.557252,6.15,-47.700001,15.150001
49309832.0,-349.121063,-718.749939,560.546875,0.992366,1.335878,-1.618321,6.45,-47.400002,14.55
49492644.0,-337.402313,-543.945313,628.417969,0.145038,3.022901,0.045802,5.55,-47.400002,15.750001
50448848.0,-394.042938,-644.042908,638.183594,0.068702,3.374046,-0.969466,5.55,-48.300003,15.750001
50631652.0,-196.777328,-653.320251,703.124939,3.389313,1.022901,-0.122137,6.0,-47.850002,15.3
50816112.0,-448.242157,-540.039063,580.078125,2.70229,2.145038,1.328244,7.2,-48.600002,15.750001
50998952.0,-377.929657,-687.98822,526.855469,2.076336,1.312977,0.496183,4.65,-47.700001,16.200001
51182104.0,-333.984344,-540.527344,686.035095,-1.381679,1.984733,0.816794,6.15,-47.700001,16.200001
51366460.0,-405.761688,-673.828064,627.441406,1.862595,1.030534,-0.083969,6.0,-48.300003,16.5
51549272.0,-377.441376,-889.648376,636.230469,2.832061,-0.541985,-1.557252,5.85,-47.700001,16.200001
51732052.0,-488.281219,-747.070251,533.691406,3.061069,0.778626,0.732824,6.15,-47.700001,15.900001
51916944.0,-407.226532,-770.01947,530.761719,0.587786,2.045802,-0.969466,5.55,-48.600002,15.3
52099764.0,-428.222626,-838.867126,653.808533,-3.122137,4.656488,0.015267,5.55,-48.300003,15.750001
53047556.0,-375.488251,-818.359314,572.265625,0.351145,4.717557,2.984733,6.45,-49.050003,15.750001
53232384.0,-562.5,-807.128845,501.464813,-0.847328,2.442748,1.007634,6.15,-47.700001,15.450001
53415084.0,-504.394501,-832.51947,537.597656,-0.007634,3.916031,0.51145,5.1,-46.800003,16.650002
53597600.0,-512.695313,-750.976501,572.265625,-0.450382,2.778626,0.389313,5.4,-46.5,14.700001
53781820.0,-447.753876,-723.14447,678.710876,-1.557252,4.442748,-0.427481,7.35,-49.200001,16.650002
53964384.0,-433.593719,-733.398376,615.234375,-0.335878,2.099237,0.51145,6.6,-47.700001,15.450001
54147148.0,-441.894501,-877.441345,609.375,3.549618,1.160305,-2.19084,5.4,-48.900002,16.200001
54331632.0,-536.132813,-747.070251,507.812469,-1.091603,4.343512,1.732824,6.6,-47.700001,15.450001
54514644.0,-487.304657,-709.960876,538.085938,-2.21374,2.465649,1.099237,6.15,-48.0,15.450001
54697452.0,-474.609344,-590.332031,645.507751,-2.694656,5.030534,-0.290076,6.45,-47.850002,16.5
55651588.0,-339.355438,-550.292969,753.417908,-0.496183,1.229008,1.091603,5.85,-48.900002,15.450001
55834628.0,-247.558578,-658.203064,696.777283,1.541985,3.320611,1.198473,5.4,-48.900002,16.200001
56017340.0,-386.718719,-709.472595,691.89447,0.877863,2.519084,-0.282443,6.15,-48.450001,15.450001
56202572.0,-463.867157,-717.773376,656.249939,0.419847,3.122137,-0.167939,6.0,-48.600002,15.3
56385752.0,-483.398407,-694.335876,573.242188,-0.816794,1.030534,-0.557252,5.4,-48.900002,15.900001
56568820.0,-339.843719,-603.027344,608.886719,-8.175572,5.679389,0.954198,5.25,-47.100002,15.750001
56753636.0,-454.101532,-648.92572,642.578064,-4.778626,5.51145,0.961832,5.55,-48.300003,16.5
56936564.0,-322.265594,-678.222595,669.921814,-4.305344,4.740458,1.267176,5.85,-47.25,15.900001
57119728.0,-417.480438,-809.08197,611.816406,-2.778626,5.129771,-0.145038,5.85,-47.700001,16.200001
57304560.0,-426.269501,-842.773376,608.398438,-0.320611,2.641221,0.40458,6.0,-47.850002,16.5
58245168.0,-540.527344,-778.808533,491.210907,-4.48855,4.030534,1.099237,5.85,-48.0,15.450001
58427876.0,-476.562469,-871.093689,543.457031,-2.183206,4.900764,1.717557,6.15,-46.800003,15.900001
58611864.0,-487.792938,-742.187439,589.84375,-2.068702,5.770992,3.427481,4.5,-48.600002,15.3
58793432.0,-438.476532,-747.558533,687.98822,-0.099237,1.70229,0.343511,6.75,-48.600002,15.750001
58976340.0,-451.171844,-773.437439,604.980469,-0.29771,1.129771,1.748092,6.0,-48.600002,16.050001
59161436.0,-518.066406,-923.339783,587.402344,0.335878,1.458015,-1.10687,6.6,-48.450001,16.950001
59344288.0,-502.929657,-740.722595,541.992188,1.671756,1.70229,0.648855,6.45,-48.300003,16.050001
59527356.0,-438.964813,-697.753845,522.460938,2.038168,0.274809,0.21374,6.45,-49.500004,16.5
59712056.0,-301.757813,-579.101563,622.558594,-1.076336,4.374046,4.305344,5.4,-47.700001,15.900001
59894812.0,-347.656219,-543.945313,746.093689,-1.923664,2.610687,1.824427,5.4,-48.0,16.650002
60844080.0,-248.04686,-466.308563,749.023376,0.274809,3.083969,1.038168,6.0,-48.300003,15.3
61026948.0,-406.249969,-639.160156,694.335876,0.236641,2.885496,-1.656489,5.55,-49.500004,15.750001
61209696.0,-481.933563,-678.222595,660.156189,-0.244275,1.48855,-0.664122,5.85,-49.050003,15.750001
61394280.0,-461.914032,-578.613281,630.371094,-4.51145,5.931298,-0.358779,5.85,-48.0,15.900001
61576884.0,-329.101532,-743.652283,720.703064,3.679389,-1.923664,-1.664122,6.15,-48.0,15.450001
61787140.0,-556.152344,-856.445251,528.808594,2.083969,2.335878,0.541985,4.5,-47.850002,16.5
61967204.0,-485.839813,-777.83197,591.796875,-3.854962,1.923664,1.618321,5.4,-49.200001,14.400001
62148476.0,-443.359344,-809.570251,672.36322,-3.305344,3.015267,-0.114504,5.85,-48.450001,15.450001
62331960.0,-378.906219,-846.191345,603.515625,-0.633588,4.870229,-0.030534,4.5,-47.850002,15.3
62513228.0,-311.523438,-511.718719,748.535095,-1.10687,2.206107,1.244275,6.6,-48.450001,15.150001
63445924.0,-201.17186,-680.17572,726.074158,3.366412,0.40458,1.725191,5.55,-48.300003,16.5
63626952.0,-549.804688,-772.949158,531.738281,-1.984733,2.328244,-0.10687,6.0,-48.600002,15.750001
63802320.0,-423.828094,-733.398376,611.328125,-3.167939,5.061069,0.709924,6.0,-48.300003,15.750001
63978176.0,-372.070282,-676.26947,565.917969,-2.0,2.198473,-1.206107,5.1,-47.700001,16.200001
64156152.0,-469.726532,-585.449219,615.234375,-4.022901,4.0,-0.458015,6.45,-48.300003,16.5
64333188.0,-377.441376,-641.113281,679.687439,1.061069,0.70229,0.183206,5.85,-47.25,15.150001
64510236.0,-282.226563,-801.757751,646.484314,2.961832,-0.419847,-1.694656,6.0,-47.850002,15.750001
64689264.0,-518.554688,-793.945251,525.390625,-1.389313,5.145038,1.580153,5.55,-49.050003,16.050001
64866832.0,-397.460907,-712.402283,566.40625,-2.80916,4.335878,0.89313,6.9,-49.200001,13.950001
65043888.0,-328.613251,-581.054688,635.742188,-7.267176,5.40458,-0.450382,6.9,-48.0,15.900001
66040312.0,-351.562469,-546.875,686.035095,-3.366412,2.557252,3.198473,7.2,-47.850002,14.55
66217268.0,-436.523407,-718.749939,657.226501,-1.572519,1.343511,-2.625954,6.15,-48.0,15.150001
66394264.0,-395.507782,-658.691345,540.527344,0.549618,2.137405,0.679389,6.15,-47.700001,16.200001
66573040.0,-407.226532,-736.328064,630.859375,0.038168,0.343511,-0.78626,6.75,-48.300003,15.750001
66749784.0,-397.949188,-808.105408,606.933594,0.641221,4.236641,2.603053,6.15,-48.0,15.150001
66926744.0,-449.218719,-645.996033,541.503906,-7.587786,6.557252,1.381679,5.85,-46.800003,15.450001
67105576.0,-433.593719,-567.871094,609.863281,-3.167939,4.206107,1.389313,6.45,-48.300003,15.3
67282640.0,-388.671844,-640.625,664.062439,-0.519084,2.167939,0.908397,6.45,-47.850002,16.5
67459600.0,-396.484344,-729.003845,567.871094,0.320611,1.603053,-0.328244,5.4,-47.700001,13.950001
67638608.0,-426.269501,-699.218689,623.046875,-0.541985,3.946565,0.900763,6.0,-48.300003,15.000001
68555664.0,-278.320313,-575.683594,585.449219,-1.137405,2.51145,1.015267,6.75,-47.400002,15.750001
68733096.0,-390.136688,-652.343689,638.671875,1.938931,1.29771,0.816794,6.75,-47.400002,14.55
68912536.0,-680.664001,-855.95697,497.558563,-2.938931,3.114504,0.610687,5.55,-47.400002,15.3
69089688.0,-499.023407,-740.234314,545.410156,-3.916031,3.694656,-0.129771,6.15,-48.0,14.700001
69265624.0,-299.804688,-651.855408,689.453064,-2.755725,4.977099,1.458015,6.0,-47.100002,15.3
69441360.0,-395.996063,-703.124939,552.246094,0.534351,1.427481,2.679389,6.9,-48.450001,15.450001
69614352.0,-357.910126,-674.316345,656.249939,-2.236641,2.137405,0.0,7.65,-46.800003,15.150001
69787880.0,-390.624969,-823.730408,575.195313,0.923664,1.564885,0.618321,5.4,-48.0,13.950001
69963152.0,-353.027313,-552.246094,631.347656,-4.21374,5.29771,-0.427481,7.5,-48.600002,14.55
70137136.0,-455.078094,-656.73822,535.15625,-5.572519,7.206107,-0.251908,6.45,-47.850002,15.3
71054848.0,-284.179688,-568.359375,702.148376,-0.938931,3.824427,3.412214,6.6,-48.900002,15.450001
71228752.0,-500.488251,-718.261658,500.976532,1.366412,3.068702,2.679389,6.15,-47.700001,15.150001
71402416.0,-496.582001,-723.14447,541.992188,-1.984733,3.129771,-0.160305,6.6,-48.0,15.150001
71578888.0,-455.078094,-805.664001,583.007813,-0.923664,4.259542,2.221374,5.55,-49.500004,15.000001
71752680.0,-512.207031,-693.359314,608.398438,-5.671756,5.244275,1.251908,6.45,-49.050003,15.750001
71926504.0,-395.996063,-592.285156,649.414001,0.099237,4.641222,1.732824,6.15,-48.0,14.700001
72102016.0,-628.90625,-891.11322,511.230438,-0.633588,2.519084,0.221374,6.6,-47.700001,14.700001
72276160.0,-429.687469,-696.289001,592.285156,-3.824427,4.282443,0.816794,6.15,-48.450001,14.700001
72449936.0,-367.675751,-689.453064,711.914001,-0.496183,3.290076,-0.480916,6.45,-48.600002,14.55
72625464.0,-394.531219,-712.402283,624.023438,-3.183206,5.679389,2.694656,6.75,-48.300003,15.000001
73548888.0,-418.457001,-705.078064,568.359375,-1.503817,4.374046,0.656489,6.75,-49.500004,15.3
73725968.0,-464.843719,-767.578064,552.246094,-2.633588,5.396946,-1.229008,5.85,-47.700001,13.950001
73905760.0,-333.984344,-532.226563,687.98822,-1.343511,4.290076,-0.122137,6.75,-48.300003,14.55
74082512.0,-211.914047,-717.773376,666.992126,1.251908,4.0,0.549618,6.45,-48.300003,14.55
74258680.0,-506.835907,-709.960876,571.289063,2.328244,0.862595,0.641221,6.45,-48.300003,14.250001
74437520.0,-565.429688,-764.160095,545.410156,-1.083969,2.366412,0.427481,6.6,-46.5,13.650001
74613688.0,-428.222626,-825.683533,639.648438,-1.503817,0.526718,1.396947,6.75,-47.850002,15.750001
74790424.0,-448.242157,-861.816345,549.316406,-3.473282,1.580153,0.916031,6.0,-48.300003,14.55
74968432.0,-395.019501,-579.589844,724.609314,0.473282,0.526718,-0.580153,7.5,-48.300003,15.3
75145040.0,-419.921844,-601.5625,689.941345,-0.80916,1.0,-1.480916,6.15,-48.450001,15.450001
76130304.0,-448.730438,-701.171814,481.445282,-0.137405,1.099237,1.633588,7.2,-47.850002,15.000001
76307088.0,-424.804657,-821.777283,600.585938,-0.946565,3.358779,0.641221,7.5,-47.850002,14.250001
76480024.0,-522.949219,-683.593689,609.375,-3.603053,5.366412,-1.519084,5.85,-48.0,13.650001
76652632.0,-416.015594,-646.484314,630.859375,1.824427,2.122137,0.450382,6.0,-48.600002,14.55
76826328.0,-529.785156,-771.972595,448.730438,-3.480916,5.549618,1.175573,5.55,-48.600002,14.250001
76998400.0,-265.625,-490.234344,677.246033,-1.19084,3.435115,2.068702,6.0,-49.050003,15.3
77170192.0,-480.957001,-735.839783,508.300751,-0.832061,1.80916,2.610687,5.55,-47.850002,14.55
77343944.0,-391.601532,-777.343689,674.804626,-4.305344,5.549618,1.129771,6.45,-47.850002,14.55
77515392.0,-377.441376,-705.078064,608.886719,-1.045802,2.778626,0.152672,6.6,-48.0,14.400001
77686896.0,-408.203094,-733.398376,617.675781,-1.083969,1.167939,2.068702,6.75,-48.300003,13.8
78646424.0,-454.101532,-721.191345,501.464813,-4.129771,6.206107,2.045802,5.85,-48.450001,15.150001
78818112.0,-262.207031,-589.84375,704.101501,-1.29771,4.259542,0.793893,6.0,-47.100002,15.000001
78989728.0,-500.976532,-735.839783,510.253876,-0.389313,2.251908,1.145038,5.55,-48.600002,14.55
79163328.0,-329.589813,-729.980408,638.183594,-4.664122,5.603054,1.717557,6.9,-48.0,13.950001
79334560.0,-351.074188,-705.566345,619.140625,-0.312977,2.274809,-0.931298,6.6,-47.700001,13.950001
79505488.0,-451.171844,-737.792908,635.742188,2.022901,1.328244,-0.648855,5.55,-47.850002,15.3
79678240.0,-457.031219,-844.23822,533.691406,-2.320611,4.748092,-0.824427,6.9,-48.450001,14.700001
79850480.0,-387.207001,-598.144531,728.515564,0.885496,1.89313,0.778626,6.15,-48.0,14.700001
80024992.0,-539.550781,-892.578064,635.742188,4.099236,-2.19084,-1.526718,6.6,-48.450001,14.700001
80199264.0,-562.5,-834.960876,488.281219,1.175573,2.603053,-0.083969,6.9,-48.0,14.400001
81143256.0,-254.394516,-588.867188,639.648438,-3.007634,2.053435,-1.641221,6.0,-48.300003,15.000001
81315352.0,-465.332001,-760.253845,580.078125,2.549618,2.40458,0.526718,6.6,-47.25,14.700001
81483704.0,-357.910126,-618.652344,639.648438,-1.374046,3.78626,1.076336,6.45,-48.600002,14.250001
81650736.0,-499.023407,-752.929626,652.343689,-0.885496,3.755725,0.854962,7.2,-48.600002,16.050001
81819576.0,-456.054657,-497.070282,624.023438,-5.122138,5.740458,-0.160305,7.35,-47.700001,14.700001
81986088.0,-421.874969,-959.472595,537.109375,-1.312977,2.022901,-0.687023,6.15,-48.0,14.400001
82152728.0,-370.605438,-613.769531,685.546814,3.40458,0.48855,0.381679,6.0,-48.300003,15.750001
82320888.0,-373.535126,-675.292908,587.890625,-6.160306,6.549618,0.992366,6.0,-47.850002,15.3
82487344.0,-557.128906,-812.011658,510.253876,0.564885,3.70229,2.335878,6.45,-48.300003,14.250001
82682840.0,-434.570282,-702.148376,621.09375,1.328244,1.832061,0.961832,5.25,-47.850002,15.000001
83644648.0,-426.269501,-787.109314,618.164063,0.709924,3.29771,-1.832061,6.0,-47.100002,12.750001
83811744.0,-541.503906,-647.949158,607.421875,-4.007634,5.328244,-0.290076,7.5,-50.250004,15.3
83981904.0,-488.281219,-834.472595,547.363281,1.076336,4.10687,0.992366,6.45,-47.850002,15.750001
84149848.0,-380.859344,-600.585938,721.191345,0.030534,2.732824,-0.366412,6.6,-48.450001,13.650001
84317616.0,-678.222595,-920.898376,517.578125,0.931298,0.40458,-1.465649,6.0,-49.500004,15.3
84486920.0,-297.363281,-609.863281,679.199158,-1.183206,5.282443,1.633588,6.45,-47.850002,15.000001
84654096.0,-531.738281,-822.753845,491.699188,-0.061069,2.656489,-0.427481,5.4,-47.25,14.400001
84821296.0,-372.070282,-642.089844,728.027283,-1.366412,2.251908,-3.282443,6.0,-49.050003,15.000001
84990696.0,-456.542938,-796.874939,554.199219,-0.740458,2.152672,-0.671756,6.15,-48.450001,14.700001
85159528.0,-448.730438,-789.55072,571.777344,0.89313,2.78626,-3.70229,5.55,-47.400002,14.250001
86143920.0,-307.128906,-543.945313,659.667908,-5.022901,7.10687,0.083969,6.45,-47.850002,13.8
86314168.0,-543.945313,-884.765564,592.285156,1.083969,0.122137,-1.534351,4.65,-49.200001,14.700001
86482536.0,-362.792938,-539.0625,595.214844,-3.412214,5.167939,-0.458015,5.1,-48.900002,14.400001
86650984.0,-493.164032,-760.253845,535.644531,2.053435,1.389313,2.480916,4.65,-48.0,13.200001
86821504.0,-322.265594,-658.203064,656.249939,-2.671756,3.625954,1.755725,5.85,-49.650002,15.150001
86989760.0,-518.066406,-700.683533,539.0625,1.290076,2.351145,-0.473282,4.8,-47.850002,14.55
87158088.0,-417.480438,-728.515564,520.019531,-2.900763,3.206107,0.320611,6.15,-48.450001,15.450001
87328360.0,-333.007782,-518.554688,655.761658,0.122137,1.282443,-0.083969,6.15,-48.0,15.450001
87498088.0,-414.062469,-870.605408,541.503906,-1.564885,4.038168,0.083969,4.8,-49.050003,14.55
87669600.0,-343.261688,-603.027344,642.089844,-0.839695,4.251908,0.541985,5.85,-48.900002,15.900001
88643248.0,-533.691406,-826.171814,540.039063,3.801527,-0.236641,0.89313,4.8,-49.500004,14.250001
88813824.0,-216.308578,-666.503845,635.742188,-3.938931,4.641222,1.114504,4.8,-49.500004,13.8
88986408.0,-395.996063,-629.394531,546.875,1.465649,1.312977,-1.29771,5.55,-48.600002,15.000001
89157520.0,-517.578125,-861.816345,501.953094,-3.770992,3.664122,-1.648855,5.4,-48.0,14.700001
89328456.0,-320.3125,-517.089844,612.304688,-6.709924,6.580153,0.89313,6.0,-48.300003,16.050001
89502216.0,-432.128876,-860.351501,557.128906,1.870229,1.145038,1.59542,4.8,-48.600002,13.500001
89673240.0,-397.949188,-603.027344,653.320251,-5.068702,5.572519,-0.015267,5.25,-48.600002,14.55
89844320.0,-294.433594,-754.882751,630.859375,1.412214,-1.740458,-1.610687,3.9,-48.0,14.700001
90017344.0,-520.507813,-746.093689,561.035156,-4.167939,2.335878,-0.312977,5.1,-48.900002,13.950001
90188184.0,-571.777344,-749.023376,532.714844,-0.633588,4.480916,0.19084,5.85,-48.900002,13.950001
91144672.0,-404.296844,-778.808533,476.562469,-2.29771,3.70229,-1.045802,5.25,-51.000004,15.000001
91318208.0,-374.023407,-560.058594,655.761658,-0.938931,4.473282,2.282443,6.0,-47.850002,13.8
91491016.0,-450.195282,-874.023376,604.492188,2.229008,-0.633588,3.145038,5.4,-48.450001,14.400001
91664808.0,-357.910126,-630.371094,622.070313,-8.083969,4.671756,-0.244275,5.25,-48.300003,15.000001
91839736.0,-187.499985,-705.078064,701.171814,2.854962,-0.045802,1.320611,5.1,-49.200001,15.150001
92013104.0,-561.523438,-860.839783,546.875,-0.198473,2.793893,0.091603,4.5,-48.300003,13.8
92187016.0,-312.5,-717.773376,617.1875,-5.122138,5.51145,2.587786,6.0,-48.600002,15.750001
92362608.0,-413.574188,-728.027283,643.554626,-1.251908,1.251908,-0.129771,5.55,-49.500004,15.3
92535872.0,-334.960907,-636.71875,676.757751,3.129771,-0.022901,1.847328,5.4,-50.100002,15.450001
92710800.0,-422.851532,-871.093689,569.335938,-0.778626,1.022901,1.519084,4.8,-48.600002,15.000001
93650808.0,-339.355438,-613.28125,666.503845,-5.870229,5.587786,0.21374,5.55,-47.400002,15.000001
93826864.0,-225.097641,-678.710876,721.679626,0.755725,3.244275,3.351145,5.85,-48.900002,14.400001
94002936.0,-474.609344,-826.660095,522.460938,-0.076336,1.923664,2.832061,6.9,-48.900002,14.700001
94180912.0,-423.828094,-775.878845,631.347656,-3.480916,5.396946,0.030534,5.55,-48.300003,15.000001
94356544.0,-422.851532,-647.460876,557.128906,-1.366412,2.206107,1.40458,6.45,-47.850002,14.250001
94533104.0,-515.136719,-655.273376,634.277344,-4.19084,5.022901,1.40458,6.9,-49.200001,13.950001
94711000.0,-397.460907,-643.554626,641.601563,4.580153,1.076336,1.0,5.85,-47.25,15.450001
94886984.0,-498.535126,-759.765564,451.660126,-5.427481,6.877862,1.167939,7.35,-48.450001,14.700001
95063096.0,-423.339813,-648.92572,558.59375,-6.007634,5.938931,0.396947,5.55,-48.300003,15.000001
95241736.0,-500.976532,-673.339783,615.722656,-5.435114,5.885496,1.152672,6.45,-48.300003,14.250001
96235576.0,-421.874969,-656.249939,608.886719,0.290076,2.358779,0.503817,7.2,-47.850002,13.8
96411768.0,-491.210907,-829.589783,615.722656,1.122137,-0.732824,-2.961832,6.15,-48.0,13.950001
96589712.0,-492.187469,-881.835876,481.445282,-2.007634,2.40458,1.10687,4.8,-47.850002,14.250001
96765880.0,-343.261688,-714.843689,656.73822,-4.015267,5.40458,0.061069,6.45,-47.400002,15.000001
96942352.0,-414.062469,-655.761658,557.617188,-1.0,3.442748,0.007634,6.75,-48.600002,16.050001
97120632.0,-485.839813,-659.179626,587.402344,-1.519084,4.290076,0.961832,6.0,-47.400002,15.3
97297680.0,-404.296844,-619.628906,662.109314,0.022901,3.717557,1.236641,5.4,-48.0,15.900001
97474656.0,-251.95311,-738.76947,659.667908,1.099237,3.89313,2.839695,6.75,-48.600002,14.55
97653328.0,-476.562469,-737.304626,532.226563,0.19084,2.419847,-0.40458,6.15,-46.800003,14.400001
97830280.0,-479.492157,-691.406189,559.082031,2.083969,1.610687,0.48855,5.25,-47.850002,14.250001
98745912.0,-532.226563,-762.695251,553.222656,-0.984733,1.412214,1.89313,5.85,-48.0,13.950001
98922360.0,-447.753876,-805.664001,620.605469,-3.10687,4.022901,0.473282,5.4,-47.700001,15.150001
99099072.0,-386.718719,-801.757751,539.550781,-1.465649,1.59542,-0.267176,6.15,-49.200001,14.400001
99277464.0,-332.031219,-550.292969,630.859375,-6.022901,6.633588,0.045802,7.2,-47.850002,14.250001
99453840.0,-280.761719,-647.949158,695.312439,-1.40458,4.824428,2.450382,6.75,-47.850002,15.3
99630904.0,-429.199188,-660.64447,629.394531,-2.091603,2.152672,-2.709924,7.95,-48.600002,15.3
99811368.0,-424.316376,-671.874939,503.417938,-0.816794,2.145038,-1.870229,5.85,-48.450001,13.950001
99989888.0,-358.886688,-601.5625,590.332031,-1.244275,1.648855,0.198473,6.45,-47.850002,14.55
100168416.0,-468.261688,-776.367126,587.402344,0.961832,4.564886,0.229008,6.6,-47.700001,13.650001
100348896.0,-332.519501,-684.08197,647.460876,-3.931298,4.572519,-1.51145,6.75,-47.850002,13.05
101338392.0,-430.664032,-680.17572,553.710938,-3.80916,5.312977,1.030534,6.0,-47.100002,13.500001
101517312.0,-565.917969,-701.171814,587.890625,-2.175573,4.572519,0.572519,5.55,-49.050003,15.000001
101698600.0,-374.999969,-595.703125,711.914001,-1.442748,2.969466,-0.396947,6.15,-48.450001,13.950001
101877392.0,-152.34375,-693.847595,673.828064,1.564885,2.854962,2.061069,6.75,-47.400002,15.000001
102056504.0,-518.066406,-734.86322,590.332031,2.496183,2.572519,-0.564885,6.15,-47.700001,13.950001
102237272.0,-499.023407,-703.124939,545.898438,1.267176,3.641221,-0.229008,6.0,-49.050003,15.3
102416536.0,-455.078094,-657.714783,613.28125,-1.167939,1.59542,-0.206107,6.9,-48.900002,14.400001
102595704.0,-416.015594,-812.499939,585.449219,0.89313,3.473282,2.908397,7.2,-47.850002,14.250001
102777152.0,-580.078125,-775.390564,500.976532,-1.038168,3.977099,-1.625954,4.8,-47.850002,15.000001
102956464.0,-412.597626,-660.64447,582.519531,-2.442748,3.625954,-0.267176,5.85,-48.900002,15.450001
103948208.0,-479.003876,-787.109314,531.738281,-3.374046,4.427481,-1.442748,7.2,-49.050003,14.250001
104128968.0,-345.214813,-538.085938,667.480408,-4.236641,5.419847,-1.396947,5.4,-47.25,14.400001
104308472.0,-513.671875,-683.593689,527.832031,1.725191,1.748092,0.938931,7.2,-48.300003,15.3
104513072.0,-556.152344,-749.511658,512.207031,-0.984733,3.977099,1.679389,5.4,-47.700001,13.650001
104691096.0,-372.558563,-704.589783,639.648438,0.740458,3.236641,0.603053,6.9,-48.900002,13.950001
104869176.0,-429.199188,-838.867126,577.636719,1.564885,3.053435,1.221374,6.45,-47.850002,14.55
105049712.0,-494.140594,-705.566345,476.562469,-3.603053,7.152672,-0.40458,5.4,-47.25,15.150001
105228032.0,-548.828125,-702.636658,589.355469,-1.480916,3.40458,-0.572519,5.55,-47.400002,14.55
105406352.0,-226.562485,-626.464844,671.874939,-4.221374,6.045802,-2.312977,6.0,-47.850002,14.250001
105586504.0,-376.953094,-657.226501,625.0,2.022901,1.687023,-0.801527,3.9,-47.25,13.200001
106551992.0,-412.109344,-644.531189,585.9375,2.007634,3.938931,-0.396947,6.15,-48.0,13.650001
106733888.0,-369.628876,-888.183533,605.46875,5.290076,-2.129771,-2.641221,5.25,-49.050003,15.3
106915008.0,-494.140594,-838.867126,529.785156,3.572519,0.251908,1.732824,4.65,-48.900002,15.150001
107097184.0,-431.640594,-807.128845,535.15625,-0.687023,2.40458,-0.900763,5.85,-47.700001,13.650001
107281040.0,-352.539032,-626.464844,635.742188,-0.984733,3.496183,3.366412,6.15,-48.900002,14.400001
107463416.0,-436.523407,-716.796814,623.046875,0.282443,3.557252,-0.122137,5.25,-48.600002,15.3
107645976.0,-377.441376,-803.710876,634.277344,0.832061,-1.526718,-0.503817,5.25,-48.600002,13.8
107830840.0,-513.183594,-722.656189,506.835907,0.022901,2.755725,0.442748,5.85,-48.0,14.400001
108012360.0,-523.925781,-773.92572,516.113281,0.549618,1.229008,-1.603053,5.25,-48.600002,14.55
108194464.0,-520.996094,-652.83197,586.425781,-3.328244,2.19084,-2.335878,5.1,-48.0,13.950001
109147432.0,-345.214813,-587.402344,681.640564,-4.679389,5.969466,0.984733,6.6,-48.0,14.400001
109329528.0,-397.949188,-555.175781,582.519531,-3.022901,7.076336,1.244275,4.8,-47.850002,14.250001
109511344.0,-281.25,-635.742188,657.226501,-1.145038,3.679389,-0.290076,6.75,-47.850002,14.55
109695288.0,-443.847626,-668.45697,591.308594,-1.083969,2.877863,0.022901,4.8,-48.300003,14.55
109877616.0,-454.101532,-819.335876,521.484375,-1.366412,0.732824,-2.709924,5.55,-49.050003,15.000001
110060000.0,-502.441376,-691.89447,536.621094,-7.022901,6.572519,0.78626,5.85,-48.0,15.150001
110244144.0,-513.671875,-754.882751,542.96875,-2.969466,2.48855,0.816794,6.0,-48.600002,14.55
110426896.0,-315.917969,-725.097595,623.046875,-3.877863,5.137404,0.793893,5.1,-48.900002,14.400001
110610032.0,-454.589813,-757.324158,645.01947,-2.076336,5.076336,-0.381679,6.15,-48.900002,14.400001
110795368.0,-391.601532,-604.003906,600.585938,3.396947,2.351145,1.137405,4.65,-47.700001,12.900001
111743816.0,-434.570282,-869.140564,606.933594,5.160306,-0.450382,-1.083969,6.15,-48.900002,13.200001
111926456.0,-561.035156,-755.859314,548.339844,1.244275,0.083969,-0.335878,6.0,-47.400002,14.55
112111096.0,-397.460907,-710.449158,551.269531,1.305344,0.312977,-0.862595,6.9,-48.900002,13.950001
112293784.0,-448.730438,-589.355469,644.042908,-0.992366,5.007634,0.358779,6.0,-47.850002,13.05
112476544.0,-341.796844,-568.359375,733.886658,-0.061069,2.328244,0.564885,5.85,-48.450001,14.700001
112661000.0,-365.234344,-606.445313,625.976563,-4.366412,6.801527,0.778626,5.4,-48.900002,13.650001
112843856.0,-319.824219,-619.628906,700.683533,-3.267176,3.641221,-1.076336,4.8,-47.400002,13.8
113026600.0,-461.914032,-670.898376,563.964844,-1.992366,3.335878,3.358779,6.0,-48.600002,15.000001
113211096.0,-495.605438,-801.26947,509.765594,-2.40458,1.977099,-0.847328,7.2,-49.500004,13.8
113393832.0,-527.34375,-789.062439,630.859375,2.519084,-0.19084,0.129771,5.1,-48.0,15.900001
114346512.0,-495.605438,-748.046814,647.460876,-1.877863,5.80916,2.175573,4.5,-47.400002,18.300001
114531664.0,-470.703094,-734.374939,615.234375,-8.038168,5.343512,-1.633588,5.55,-47.100002,15.3
114714328.0,-388.183563,-610.351563,665.039001,-7.450382,7.824428,-0.122137,5.1,-47.25,15.900001
114896784.0,-363.281219,-677.734314,679.687439,-0.656489,4.328244,-1.473282,4.65,-48.450001,15.150001
115081344.0,-229.980453,-628.417969,692.871033,-0.053435,6.389313,1.526718,6.0,-48.600002,14.55
115264176.0,-475.585907,-735.839783,617.1875,2.122137,3.961832,-0.145038,5.25,-48.600002,14.250001
115447472.0,-350.585907,-754.882751,633.789063,1.381679,1.412214,1.961832,5.85,-47.25,13.950001
115632144.0,-465.332001,-608.886719,651.367126,-2.732824,3.946565,-1.236641,5.4,-46.800003,13.200001
115815080.0,-353.515594,-563.476563,739.257751,-4.427481,3.824427,-0.290076,5.25,-46.650002,15.000001
115998336.0,-448.730438,-766.11322,487.304657,0.10687,4.221374,0.076336,5.55,-49.050003,12.3
116945816.0,-433.105438,-729.980408,591.308594,2.503817,0.625954,0.801527,4.5,-49.050003,13.500001
117129024.0,-346.679657,-677.734314,663.574158,3.59542,1.969466,-1.984733,5.25,-48.300003,13.500001
117314472.0,-403.320282,-756.835876,629.394531,2.10687,2.038168,-1.656489,5.4,-48.450001,14.400001
117497712.0,-438.476532,-846.679626,628.417969,1.694656,0.580153,-2.137405,5.1,-48.900002,14.700001
117681024.0,-474.609344,-669.433533,557.617188,-1.694656,4.671756,1.580153,5.4,-49.200001,12.450001
117865984.0,-418.945282,-713.378845,496.093719,-1.183206,4.793893,-1.572519,4.8,-48.600002,13.05
118049120.0,-416.992157,-653.320251,612.304688,-4.961832,7.038168,-2.946565,6.0,-47.100002,13.05
118232496.0,-374.023407,-668.945251,671.874939,-0.343511,3.641221,-0.251908,5.4,-49.200001,13.200001
118417416.0,-258.789063,-565.429688,679.687439,1.091603,4.022901,0.083969,5.4,-50.100002,12.900001
118600608.0,-379.882782,-729.492126,768.554626,2.145038,2.045802,1.099237,4.65,-49.650002,14.700001
119548816.0,-440.917938,-656.249939,556.152344,-1.931298,4.519084,-0.312977,4.35,-48.900002,13.950001
119733616.0,-501.953094,-747.558533,526.855469,-3.832061,4.717557,-0.938931,5.1,-48.450001,13.650001
119917000.0,-462.402313,-745.605408,501.464813,-7.068702,7.129771,-0.145038,3.9,-49.200001,12.450001
120100032.0,-520.507813,-728.515564,491.699188,-2.725191,4.51145,-0.206107,4.65,-48.900002,12.900001
120285320.0,-403.320282,-740.234314,563.476563,-1.687023,3.175573,2.78626,4.35,-49.200001,12.450001
120468368.0,-474.121063,-697.265564,661.132751,2.167939,2.977099,2.412214,5.4,-49.200001,11.700001
120651704.0,-352.050751,-775.390564,636.230469,2.335878,4.419847,1.48855,5.85,-48.900002,14.400001
120836528.0,-497.558563,-837.890564,617.1875,1.587786,-1.045802,-2.358779,4.5,-48.600002,13.500001
121019552.0,-464.843719,-755.859314,521.972656,2.358779,1.59542,0.229008,4.5,-48.600002,15.3
121202592.0,-409.667938,-447.265594,686.035095,-1.977099,5.007634,1.977099,5.85,-48.900002,13.950001
122142608.0,-666.503845,-911.132751,360.351532,-4.694656,5.137404,0.442748,5.25,-49.800003,13.8
122325944.0,-410.156219,-451.171844,679.199158,-9.992367,5.793893,0.129771,4.35,-48.900002,12.900001
122509128.0,-205.566391,-358.398407,637.695313,2.992366,0.770992,-0.366412,3.75,-49.050003,13.8
122694064.0,-805.664001,-864.746033,511.718719,6.122138,-1.648855,-1.396947,3.15,-48.0,15.150001
122877544.0,-547.363281,-938.476501,546.386719,-0.083969,5.022901,2.244275,5.1,-48.0,15.450001
123061200.0,-350.585907,-869.140564,550.78125,-6.274809,5.053435,-0.557252,4.8,-49.050003,14.55
123247032.0,-316.40625,-576.171875,607.910156,-4.541985,4.770992,1.603053,4.5,-49.050003,15.3
123430536.0,-242.187485,-366.699188,800.292908,-1.78626,4.145038,1.931298,4.8,-49.050003,15.3
123612024.0,-394.531219,-782.226501,532.714844,3.725191,-0.007634,1.282443,4.35,-49.200001,15.150001
123792952.0,-301.269531,-457.031219,815.917908,0.183206,2.366412,0.954198,4.5,-48.300003,13.500001
124746392.0,-228.027328,-822.265564,692.871033,8.435115,-2.114504,-0.961832,5.1,-50.100002,14.700001
124929616.0,-583.007813,-680.17572,453.613251,3.312977,-0.534351,0.427481,4.8,-48.600002,15.000001
125114680.0,-710.449158,-873.046814,602.539063,-0.221374,1.175573,0.900763,5.25,-49.050003,14.55
125298280.0,-551.269531,-1006.347595,657.226501,-2.732824,2.778626,-0.236641,6.45,-48.300003,14.55
125481520.0,-438.964813,-848.14447,561.035156,-5.10687,5.946565,-1.259542,5.55,-47.850002,15.000001
125666536.0,-303.710938,-413.574188,782.226501,-7.38168,7.305344,0.221374,4.05,-48.600002,13.8
125849880.0,-383.300751,-875.976501,558.105469,4.29771,-3.603053,-1.648855,4.65,-47.25,14.400001
126332176.0,-327.636688,-566.40625,666.992126,3.961832,0.19084,-0.290076,5.4,-48.900002,15.150001
126776136.0,-806.152283,-929.199158,485.351532,0.816794,2.236641,-1.923664,4.8,-48.600002,14.250001
127269688.0,-449.707001,-924.804626,483.886688,-0.007634,0.984733,-2.183206,5.25,-47.100002,15.750001
128484416.0,-421.386688,-623.535156,590.820313,-2.748092,5.351145,-0.343511,4.8,-47.400002,15.3
128913400.0,-264.648438,-446.289032,741.699158,-3.442748,4.10687,1.053435,4.65,-46.5,14.700001
129404288.0,-279.296875,-669.921814,563.476563,-1.900763,0.625954,2.114504,4.8,-47.850002,13.8
129845280.0,-502.929657,-605.957031,703.61322,-2.587786,1.076336,0.427481,4.8,-48.600002,14.55
130287760.0,-565.917969,-806.152283,642.578064,0.78626,4.625954,2.10687,4.8,-48.300003,14.55
130773480.0,-147.460938,-682.617126,696.289001,2.740458,-1.167939,0.206107,5.85,-48.0,13.950001
131190704.0,-518.066406,-757.324158,502.441376,1.587786,2.129771,1.099237,7.35,-46.050003,13.950001
131685448.0,-272.460938,-481.933563,758.789001,-3.641221,1.778626,0.633588,6.45,-49.050003,14.55
132100856.0,-517.089844,-561.035156,652.83197,-5.900764,6.030534,2.374046,6.6,-46.800003,15.900001
132537944.0,-494.140594,-571.289063,580.078125,-0.687023,0.244275,0.335878,6.45,-47.400002,15.3
133891272.0,-272.949219,-639.160156,740.722595,-2.503817,4.229008,1.129771,7.65,-46.800003,14.400001
134072672.0,-364.257782,-546.386719,569.824219,-0.328244,0.854962,-1.114504,7.5,-47.850002,16.5
134254144.0,-507.812469,-799.804626,589.84375,-5.587786,3.572519,-0.870229,6.75,-46.650002,15.750001
134437376.0,-351.074188,-587.402344,713.867126,-5.007634,4.229008,0.221374,6.0,-46.650002,14.250001
134619136.0,-256.347656,-724.121033,595.703125,1.015267,1.648855,-2.534351,6.45,-46.200001,14.250001
134800704.0,-547.363281,-812.499939,559.570313,-4.473282,4.519084,0.251908,6.75,-47.100002,14.250001
134984064.0,-429.199188,-665.039001,717.773376,-6.458015,1.977099,-1.725191,7.2,-46.650002,15.750001
135165648.0,-406.249969,-799.316345,404.296844,-0.083969,0.114504,2.015267,7.65,-47.25,14.400001
135347552.0,-469.726532,-950.683533,560.546875,-4.282443,2.320611,2.961832,7.65,-45.600002,15.450001
135531024.0,-419.921844,-642.578064,682.617126,-5.0,2.80916,1.137405,7.65,-46.5,14.400001
136452240.0,-502.441376,-743.164001,432.128876,1.473282,0.755725,1.839695,7.5,-46.650002,14.55
136633744.0,-421.386688,-936.523376,571.289063,-2.839695,2.022901,0.274809,7.35,-45.600002,14.700001
136817792.0,-469.238251,-518.554688,766.11322,-2.328244,1.916031,1.282443,8.1,-48.450001,14.700001
136999312.0,-351.074188,-653.808533,520.507813,2.274809,1.412214,2.709924,7.35,-46.5,14.400001
137180736.0,-506.835907,-747.558533,502.929657,-5.557252,1.801527,-0.992366,8.1,-45.300003,14.700001
137363952.0,-140.625,-469.726532,788.574158,-5.48855,5.221374,3.206107,8.1,-46.800003,15.900001
137545664.0,-494.140594,-649.414001,594.726563,2.145038,-0.229008,1.40458,8.25,-46.200001,14.250001
137727168.0,-512.207031,-876.953064,346.191376,-2.51145,1.305344,1.870229,8.1,-45.600002,14.700001
137910464.0,-429.199188,-710.937439,666.015564,-5.038168,3.320611,-1.152672,7.35,-46.5,13.650001
138091952.0,-389.648407,-550.292969,615.234375,-6.572519,5.549618,0.694656,8.85,-46.5,15.450001
139048864.0,-249.023422,-614.257813,708.984314,-6.503817,3.931298,1.465649,10.05,-45.600002,14.700001
139232416.0,-403.320282,-661.621033,593.75,-0.160305,1.923664,2.839695,8.1,-46.050003,14.400001
139413968.0,-477.539032,-838.378845,456.542938,-2.267176,1.572519,-0.10687,7.95,-45.450001,14.250001
139595488.0,-469.238251,-621.09375,708.496033,-8.045801,3.969466,0.267176,8.25,-46.200001,14.55
139779376.0,-8.789063,-565.917969,804.687439,2.282443,1.282443,1.59542,8.1,-46.5,15.150001
139961264.0,-353.027313,-850.097595,545.898438,3.076336,0.916031,1.717557,9.3,-45.600002,14.700001
140142784.0,-392.578094,-848.14447,593.75,0.51145,-1.946565,1.908397,8.85,-45.600002,16.200001
140326112.0,-539.550781,-778.808533,541.015625,0.519084,2.145038,0.839695,9.3,-45.600002,15.450001
140507712.0,-453.124969,-986.328064,499.023407,-3.51145,4.389313,1.061069,8.700001,-45.900002,15.3
140689536.0,-354.003876,-852.05072,475.585907,-7.778626,1.366412,-1.984733,9.75,-45.450001,15.000001
141644336.0,-461.425751,-530.273438,536.132813,-6.854962,3.221374,1.755725,9.75,-45.900002,13.500001
141826016.0,-68.847656,-854.003845,760.742126,-5.664122,2.091603,-1.740458,10.5,-44.700001,15.3
142007632.0,-274.414063,-748.535095,691.89447,-1.694656,4.053435,2.122137,10.950001,-45.150002,15.750001
142191296.0,-517.578125,-705.078064,638.183594,-1.671756,1.236641,0.687023,9.6,-44.550003,15.150001
142373088.0,-284.667969,-1151.367187,703.124939,-0.725191,3.755725,3.328244,8.400001,-46.050003,14.400001
142554784.0,-359.863251,-718.261658,615.234375,-3.076336,5.320611,5.221374,9.450001,-45.150002,16.050001
142738720.0,-561.035156,-667.968689,637.695313,0.793893,1.206107,1.0,9.0,-44.25,15.000001
142920624.0,-289.550781,-1172.363281,667.968689,0.198473,2.709924,3.091603,9.75,-45.150002,15.000001
143102352.0,-352.050751,-799.804626,636.230469,-3.458015,3.160305,4.351145,10.200001,-45.150002,15.000001
143285808.0,-334.472626,-729.492126,697.753845,-4.992366,-1.564885,0.015267,10.35,-44.850002,13.950001
144243328.0,-645.507751,-437.988251,630.859375,-2.267176,-0.351145,5.259542,10.8,-44.550003,14.700001
144426640.0,-684.570251,-799.804626,564.453125,-5.740458,0.267176,-0.450382,11.700001,-43.050003,14.55
144608432.0,-381.347626,-659.179626,697.265564,-3.320611,-0.977099,4.129771,10.35,-44.100002,15.450001
144789872.0,-613.28125,-828.61322,721.679626,2.122137,0.282443,7.21374,10.8,-43.350002,15.150001
144973168.0,-537.109375,-710.449158,571.777344,-3.10687,1.503817,6.78626,12.150001,-43.950001,14.55
145154672.0,-520.019531,-639.160156,686.523376,-1.099237,-1.114504,3.175573,12.3,-42.450001,16.200001
145336448.0,-416.015594,-1003.906189,715.33197,-0.427481,-0.320611,7.564886,12.3,-42.450001,15.450001
145520336.0,-393.554657,-719.726501,579.589844,-2.778626,1.366412,6.923664,11.85,-42.900002,15.450001
145701888.0,-483.886688,-599.609375,619.628906,-6.648855,-0.358779,4.70229,13.650001,-43.950001,15.000001
145883440.0,-539.550781,-603.027344,610.839844,-5.48855,-2.0,1.366412,14.700001,-40.650002,15.000001
146845248.0,-453.613251,-768.554626,617.675781,-1.740458,-4.572519,2.351145,15.150001,-41.100002,16.050001
147027184.0,-379.394501,-715.33197,529.296875,-5.259542,-1.053435,5.290076,13.950001,-41.850002,16.050001
147209104.0,-395.507782,-570.800781,585.9375,-6.251908,-2.427481,1.938931,15.150001,-39.900002,17.25
147392688.0,-255.371078,-684.08197,710.937439,-0.419847,-3.908397,3.938931,14.1,-39.0,17.400002
147574768.0,-513.671875,-759.277283,645.507751,-2.839695,0.045802,6.396946,14.85,-40.200001,17.700001
147756704.0,-333.007782,-680.17572,581.054688,-7.022901,-4.641222,3.335878,15.450001,-39.150002,18.0
147937968.0,-491.210907,-802.246033,640.625,-3.664122,-6.541985,4.687023,16.800001,-39.0,16.950001
148114272.0,-336.914032,-723.14447,679.199158,-4.885496,-1.427481,4.778626,16.200001,-39.150002,18.0
148290096.0,-565.917969,-646.972595,695.312439,-1.320611,-3.51145,8.229008,16.200001,-38.400002,17.550001
148468112.0,-269.042969,-769.531189,541.015625,-7.717557,-0.839695,1.641221,16.800001,-35.400002,18.900002
149445872.0,-302.734375,-678.222595,689.941345,-2.587786,-2.343511,4.534351,17.400002,-36.0,19.050001
149621728.0,-552.246094,-833.984314,655.273376,-6.305344,-1.969466,4.320611,16.800001,-36.600002,20.400002
149799024.0,-284.667969,-645.507751,520.507813,-5.80916,-1.839695,1.320611,17.700001,-35.550003,21.0
149975232.0,-352.539032,-625.0,607.421875,-2.885496,-1.183206,6.984733,17.25,-34.200001,19.950001
150150832.0,-422.363251,-664.55072,628.417969,-2.603053,-3.946565,4.854962,18.6,-34.050003,21.75
150328400.0,-304.199219,-833.007751,547.363281,-4.633588,-1.206107,4.664122,17.550001,-34.650002,21.900002
150503872.0,-214.843735,-856.445251,662.597595,-4.389313,1.061069,5.48855,18.75,-33.75,21.900002
150680160.0,-239.257797,-832.51947,748.046814,-2.877863,-0.267176,6.89313,18.300001,-33.450001,22.200001
150857600.0,-421.874969,-601.074219,651.367126,-3.503817,-2.351145,5.343512,19.650002,-31.950001,22.5
151033344.0,-491.699188,-803.222595,641.601563,-1.557252,-1.450382,4.534351,18.75,-31.35,23.400002
151951408.0,-451.171844,-1002.929626,811.523376,-1.328244,-2.007634,4.465649,18.6,-31.650002,22.800001
152151280.0,-692.871033,-890.136658,799.316345,-1.274809,-2.961832,2.572519,17.700001,-31.200001,24.750002
152325616.0,-563.964844,-543.457031,634.765625,-5.244275,3.70229,3.824427,19.35,-31.950001,25.050001
152499760.0,-294.921875,-481.933563,549.804688,-4.610687,0.977099,2.656489,18.900002,-31.200001,24.300001
152676016.0,-314.453125,-579.589844,542.96875,-3.877863,2.206107,2.961832,18.900002,-32.850002,24.0
152850160.0,-262.207031,-750.48822,584.472656,-2.59542,0.870229,3.412214,18.75,-30.6,24.450001
153026128.0,-370.117157,-819.824158,743.652283,-1.480916,-1.435115,1.839695,18.300001,-30.6,26.400002
153200288.0,-444.335907,-639.648438,639.648438,-0.091603,-0.328244,4.38168,19.050001,-30.6,25.200001
153374288.0,-385.253876,-677.246033,620.605469,-2.748092,1.572519,0.59542,18.75,-29.85,25.200001
153550256.0,-230.957016,-639.160156,531.25,-0.503817,0.19084,-0.48855,17.700001,-28.800001,25.050001
154540976.0,-315.917969,-605.957031,467.285126,-2.381679,2.847328,1.854962,18.6,-30.000002,25.050001
154716496.0,-469.238251,-913.574158,851.074158,-2.305344,1.259542,2.557252,18.6,-29.700001,25.800001
154893888.0,-349.609344,-532.226563,489.257782,-2.977099,2.847328,-1.335878,18.75,-30.300001,25.950001
155069216.0,-452.636688,-765.624939,684.08197,-1.274809,3.007634,1.335878,19.800001,-28.650002,27.900002
155245056.0,-386.230438,-730.95697,604.980469,-6.900764,0.816794,-0.396947,19.650002,-30.000002,25.800001
155423040.0,-334.472626,-748.535095,444.824188,-0.564885,0.389313,-1.48855,18.75,-29.400002,27.450001
155598592.0,-398.925751,-697.265564,684.08197,-0.396947,2.0,-0.061069,18.75,-29.400002,25.650002
155773920.0,-395.507782,-539.550781,503.417938,-1.526718,2.671756,1.618321,18.75,-30.300001,27.150002
155951776.0,-312.988281,-590.332031,556.152344,-4.427481,3.198473,1.549618,18.6,-29.250002,25.800001
156127216.0,-396.972626,-776.367126,619.140625,-2.442748,4.099236,2.045802,18.300001,-29.1,27.450001
157045696.0,-507.324188,-732.421814,711.914001,1.435115,1.862595,2.381679,19.35,-30.000002,27.300001
157222736.0,-256.835938,-545.898438,571.289063,-1.335878,2.519084,3.167939,19.5,-27.900002,28.200001
157398304.0,-527.34375,-783.203064,667.480408,-4.473282,5.61832,3.374046,18.300001,-27.900002,27.150002
157573952.0,-403.320282,-597.65625,593.261719,-0.251908,0.137405,1.503817,18.75,-29.1,27.450001
157751296.0,-390.624969,-834.960876,645.507751,-3.076336,1.312977,2.244275,19.5,-28.650002,26.700001
157927504.0,-509.765594,-735.839783,698.730408,4.412214,-0.938931,4.137404,18.150002,-28.800001,26.250002
158106240.0,-435.058563,-757.812439,617.675781,-5.664122,4.51145,0.961832,19.050001,-27.900002,28.200001
158287680.0,-427.246063,-717.285095,575.195313,-0.793893,1.091603,0.030534,18.150002,-27.6,28.050001
158466064.0,-278.320313,-544.921875,498.535126,-1.931298,0.496183,3.198473,19.35,-28.500002,28.800001
158644336.0,-546.386719,-779.296814,630.859375,-2.984733,2.671756,3.045802,18.150002,-27.300001,29.550001
159635968.0,-375.976532,-577.148438,623.046875,-0.236641,0.274809,-1.198473,18.0,-27.900002,30.150002
159814192.0,-475.585907,-722.656189,525.390625,-3.473282,0.832061,2.480916,18.300001,-27.900002,30.150002
159992576.0,-318.359375,-426.757782,575.683594,-1.160305,-0.954198,2.251908,18.75,-26.700001,30.150002
160172576.0,-495.117157,-857.421814,705.078064,-6.129771,1.694656,2.030534,18.0,-27.000002,29.700001
160350848.0,-323.242157,-685.546814,550.292969,-1.320611,0.221374,-0.251908,17.700001,-26.400002,29.250002
160529008.0,-362.792938,-719.726501,562.988281,-3.519084,1.770992,3.152672,18.300001,-26.700001,29.700001
160708256.0,-444.824188,-916.503845,801.26947,-0.541985,3.717557,0.618321,17.700001,-26.85,29.550001
160882144.0,-311.035156,-362.792938,558.105469,-3.282443,2.328244,0.267176,19.650002,-26.400002,29.550001
161057040.0,-476.074188,-808.105408,719.23822,-4.61832,2.679389,1.641221,19.050001,-25.800001,30.150002
161233856.0,-487.304657,-722.656189,536.621094,-1.877863,2.099237,3.328244,18.0,-26.250002,30.450001
162151168.0,-483.398407,-714.355408,703.61322,2.923664,1.412214,0.396947,16.5,-25.800001,29.700001
162326144.0,-264.648438,-569.335938,540.527344,-4.656488,3.19084,3.671756,17.550001,-27.900002,31.650002
162502624.0,-623.046875,-812.011658,645.996033,-1.312977,1.977099,1.206107,18.300001,-26.700001,29.400002
162677328.0,-325.683563,-573.242188,617.1875,-1.480916,0.961832,1.641221,16.950001,-26.400002,31.500002
162852064.0,-427.734344,-869.628845,652.343689,-6.076336,4.526718,-0.854962,18.75,-25.800001,30.450001
163028928.0,-420.898407,-650.390564,505.371063,2.19084,0.900763,1.59542,17.700001,-26.400002,30.000002
163203648.0,-277.832031,-514.648438,605.46875,-1.839695,2.969466,0.076336,17.400002,-25.35,31.500002
163380160.0,-433.593719,-903.808533,688.476501,-1.435115,0.381679,1.305344,17.25,-25.800001,31.200001
163554832.0,-487.792938,-551.757813,623.535156,-1.396947,3.48855,2.641221,17.700001,-25.650002,30.300001
163729888.0,-291.992188,-591.308594,539.550781,-2.091603,4.541985,2.022901,17.25,-26.250002,31.950001
164653968.0,-498.535126,-739.746033,655.761658,-0.564885,4.038168,3.312977,16.5,-25.050001,31.950001
164829248.0,-458.496063,-467.773407,552.734375,0.290076,1.885496,-1.091603,16.200001,-25.35,31.500002
165004064.0,-405.761688,-863.281189,655.273376,-6.19084,1.351145,-0.061069,17.550001,-25.500002,31.650002
165181136.0,-423.339813,-690.429626,541.015625,0.938931,1.10687,3.549618,17.400002,-25.650002,31.500002
165356064.0,-384.765594,-629.394531,542.96875,-2.587786,2.412214,2.793893,16.950001,-24.150002,31.500002
165531312.0,-456.542938,-833.496033,678.222595,-0.671756,2.679389,2.938931,17.550001,-25.800001,31.650002
165707952.0,-520.507813,-550.292969,562.011719,-1.473282,3.931298,1.78626,17.25,-25.500002,31.950001
165883392.0,-368.652313,-662.597595,625.488281,-4.366412,4.870229,0.335878,17.400002,-26.85,31.800001
166058288.0,-449.707001,-755.859314,594.238281,1.992366,-1.343511,1.832061,16.5,-24.750002,31.950001
166235376.0,-447.753876,-699.70697,697.265564,-1.183206,1.015267,5.312977,15.150001,-24.450001,31.800001
167153088.0,-353.515594,-574.21875,486.816376,-7.236641,1.198473,3.748092,16.200001,-24.900002,33.0
167327696.0,-527.34375,-994.628845,761.718689,1.229008,-3.854962,2.740458,16.800001,-25.050001,33.150002
167505024.0,-329.101532,-635.253906,518.066406,-2.78626,0.221374,1.229008,15.3,-26.250002,32.400002
167679696.0,-346.679657,-648.92572,469.726532,-4.282443,-0.51145,2.687023,15.750001,-24.300001,32.700001
167854464.0,-454.101532,-908.203064,863.281189,-1.610687,-2.21374,1.969466,16.5,-25.500002,33.900002
168030912.0,-319.824219,-498.535126,543.457031,-5.343512,-0.885496,2.519084,16.200001,-24.450001,33.300003
168207248.0,-639.160156,-1102.539062,792.480408,-1.725191,0.633588,4.900764,16.050001,-24.750002,34.650002
168385152.0,-307.617188,-563.964844,523.925781,-4.351145,-2.458015,3.083969,15.3,-23.550001,33.150002
168564880.0,-440.429657,-848.14447,666.015564,-3.244275,2.541985,4.847328,13.35,-22.650002,34.650002
168742816.0,-123.046867,-365.234344,621.09375,-9.259542,-0.450382,3.908397,14.1,-24.750002,35.700001
169738592.0,-458.007782,-1033.203125,582.03125,4.625954,-5.91603,4.587786,14.400001,-24.900002,36.300003
169918368.0,-328.124969,-224.121078,681.640564,-7.740458,1.465649,1.969466,11.85,-23.550001,36.900002
170096736.0,-624.511719,-1199.707031,541.992188,-1.312977,-1.335878,6.503817,13.650001,-23.700001,36.300003
170274720.0,-278.320313,-429.199188,818.847595,-4.61832,2.351145,4.412214,13.200001,-24.150002,36.0
170455536.0,-442.871063,-815.429626,424.804657,-5.274809,0.274809,5.129771,12.6,-23.1,37.200001
170633072.0,-503.906219,-481.933563,854.980408,-0.351145,-2.335878,4.541985,12.450001,-24.450001,36.75
170810784.0,-386.718719,-852.05072,543.945313,-10.335877,-0.21374,4.496183,11.85,-22.650002,38.700001
170990048.0,-404.296844,-691.406189,666.015564,2.908397,-6.053435,3.061069,11.55,-24.750002,37.950001
171168560.0,-285.15625,-445.800751,510.742157,-9.969465,2.618321,3.877863,12.450001,-21.75,37.5
171349216.0,-523.925781,-1040.039062,567.871094,-1.648855,-6.229008,6.114504,10.05,-24.300001,39.150002
172343232.0,-298.828125,-415.039032,800.292908,-3.221374,-3.236641,5.48855,8.400001,-23.550001,39.150002
172521888.0,-371.093719,-745.117126,425.781219,-4.282443,-1.290076,3.916031,9.6,-21.900002,39.900002
172700880.0,-533.203125,-534.179688,888.183533,-5.221374,-5.908397,5.480916,9.0,-23.25,39.300003
172881264.0,-409.179657,-734.86322,478.515594,-7.954198,-0.778626,4.80916,8.1,-23.1,40.650002
173090240.0,-425.781219,-887.695251,680.664001,1.061069,-1.770992,8.229008,7.2,-22.050001,42.0
173265840.0,-432.617157,-430.175751,682.617126,-5.458015,-1.007634,5.687023,7.35,-21.900002,41.400002
173442800.0,-485.839813,-960.937439,577.148438,-7.183206,0.145038,6.40458,8.400001,-22.650002,42.150002
173622000.0,-317.382813,-515.136719,638.183594,0.473282,-3.610687,6.78626,7.5,-23.700001,42.300003
173798832.0,-343.261688,-616.210938,541.503906,-9.435115,0.183206,4.251908,6.75,-22.050001,42.75
173975648.0,-678.710876,-648.92572,822.265564,0.015267,-3.618321,2.664122,5.55,-23.25,43.050003
174945888.0,-241.210922,-660.156189,592.285156,-8.870229,4.290076,1.709924,4.65,-23.1,42.450001
175123200.0,-484.863251,-758.30072,502.929657,-0.748092,-2.40458,3.580153,5.55,-23.25,43.5
175299904.0,-293.945313,-409.667938,742.67572,-4.671756,1.740458,3.091603,4.65,-22.35,43.200001
175478944.0,-471.679657,-823.242126,500.488251,-2.671756,-0.992366,1.832061,5.4,-23.550001,42.450001
175657008.0,-739.257751,-704.589783,835.449158,-0.839695,-1.145038,-0.061069,4.8,-24.150002,43.5
175832800.0,-291.992188,-753.906189,544.433594,-8.053435,3.984733,2.343511,5.55,-24.150002,44.550003
176009968.0,-461.914032,-744.628845,497.070282,-0.755725,0.572519,-0.274809,5.25,-24.150002,43.5
176185104.0,-403.320282,-627.441406,720.214783,1.152672,-0.473282,0.618321,4.35,-22.650002,43.950001
176360384.0,-313.964844,-589.84375,523.4375,-5.244275,4.038168,2.450382,5.1,-23.550001,44.400002
176537888.0,-343.749969,-691.89447,623.535156,-5.396946,4.473282,-0.007634,4.35,-23.550001,43.650002
177455968.0,-559.082031,-1071.289062,704.589783,-0.908397,1.687023,1.70229,3.75,-23.25,43.050003
177630592.0,-200.195297,-597.65625,569.335938,-1.541985,0.862595,1.053435,3.3,-23.700001,43.5
177806464.0,-378.906219,-739.746033,478.027313,-3.259542,4.328244,2.748092,2.55,-23.700001,43.5
177980688.0,-448.730438,-845.214783,583.496094,2.519084,-0.122137,-0.206107,5.25,-23.25,43.800003
178154464.0,-324.218719,-461.914032,729.980408,-3.198473,4.465649,1.694656,3.6,-23.85,43.950001
178330624.0,-348.632782,-617.675781,503.906219,-7.076336,5.793893,2.534351,2.55,-23.25,43.800003
178504992.0,-623.046875,-788.574158,643.554626,0.48855,2.29771,1.59542,3.0,-22.050001,44.25
178679712.0,-334.472626,-449.707001,632.8125,-0.977099,1.152672,-1.320611,3.15,-24.300001,44.700001
178855824.0,-475.585907,-964.355408,631.347656,-4.473282,4.770992,2.045802,2.55,-22.950001,45.300003
179030352.0,-368.164032,-675.781189,458.496063,-2.328244,3.259542,-1.465649,4.8,-23.25,44.25
179945744.0,-443.359344,-863.76947,801.26947,0.473282,2.648855,0.694656,4.05,-23.700001,44.550003
180122992.0,-281.738281,-382.812469,527.34375,-6.442748,2.091603,0.358779,3.6,-23.85,44.400002
180297664.0,-428.222626,-782.714783,570.800781,-3.694656,5.099236,1.160305,3.15,-23.85,43.950001
180472160.0,-643.066345,-711.914001,761.230408,-1.519084,2.068702,-1.70229,2.7,-25.050001,44.400002
180648512.0,-273.925781,-705.566345,603.515625,-7.114504,3.580153,2.740458,3.6,-23.85,43.650002
180823424.0,-505.371063,-834.472595,512.207031,-1.099237,4.167939,2.244275,3.6,-23.550001,43.650002
180997616.0,-415.527313,-609.863281,714.843689,2.580153,3.038168,1.381679,4.05,-23.700001,43.800003
181173312.0,-325.683563,-526.367188,609.863281,-3.40458,4.099236,0.78626,3.3,-24.150002,45.0
181347376.0,-434.570282,-926.26947,629.882813,-1.282443,3.984733,0.625954,3.6,-24.750002,43.950001
181521616.0,-428.222626,-607.421875,733.398376,0.061069,0.465649,1.137405,3.6,-25.050001,45.150002
182447872.0,-310.546875,-522.460938,559.082031,-5.625954,4.167939,0.389313,2.7,-24.300001,44.700001
182621968.0,-665.039001,-758.30072,676.26947,0.870229,2.839695,1.534351,2.4,-23.85,44.700001
182798816.0,-321.289032,-504.882782,616.699219,-2.167939,4.656488,-1.396947,3.3,-23.700001,43.050003
182974096.0,-489.746063,-884.277283,638.183594,-4.770992,5.541985,0.709924,2.7,-23.85,44.700001
183149408.0,-451.660126,-667.968689,676.757751,4.549618,0.21374,-0.290076,2.55,-24.900002,43.5
183326320.0,-328.124969,-560.546875,603.515625,-1.152672,5.694656,1.045802,1.8,-23.700001,45.0
183501536.0,-502.441376,-911.621033,619.628906,0.427481,4.267176,2.21374,3.15,-24.750002,43.950001
183676320.0,-425.292938,-376.953094,580.566406,0.450382,0.48855,-1.862595,3.75,-24.450001,42.75
183851712.0,-358.398407,-646.972595,586.914063,-2.717557,3.694656,0.183206,2.25,-24.150002,44.25
184024576.0,-537.597656,-893.554626,609.375,1.183206,4.496183,1.015267,3.75,-24.150002,44.550003
184948704.0,-393.554657,-351.074188,555.175781,1.389313,0.328244,0.419847,3.6,-23.550001,42.450001
185123616.0,-359.374969,-640.625,590.332031,-4.938931,5.732824,0.251908,3.9,-24.750002,44.400002
185296512.0,-636.71875,-1125.488281,708.496033,-3.198473,2.610687,-1.908397,3.75,-24.450001,42.75
185468832.0,-336.914032,-610.839844,625.976563,1.541985,1.259542,-1.664122,2.7,-22.35,43.650002
185643472.0,-227.050766,-672.851501,623.046875,-7.740458,6.679389,0.167939,3.15,-23.1,43.200001
185815936.0,-516.601563,-934.08197,505.859344,-1.78626,2.908397,0.10687,3.3,-23.700001,43.5
185988448.0,-416.015594,-606.933594,601.074219,4.954198,0.633588,1.931298,3.6,-22.35,44.700001
186162560.0,-223.144516,-507.324188,579.101563,0.129771,3.450382,-1.900763,4.35,-23.85,42.900002
186333968.0,-450.683563,-715.33197,494.628876,-1.251908,4.541985,0.931298,3.0,-24.150002,44.25
186505792.0,-454.589813,-928.710876,616.699219,-5.755725,4.839694,0.48855,4.8,-24.150002,43.5
187450896.0,-430.175751,-776.367126,487.304657,2.083969,1.763359,0.396947,4.65,-23.550001,44.400002
187624976.0,-194.824203,-524.414063,557.128906,0.259542,2.145038,-0.312977,4.05,-22.5,43.5
187797168.0,-416.992157,-726.562439,481.445282,-2.603053,4.763359,1.290076,3.0,-22.950001,44.550003
187971328.0,-476.074188,-932.617126,636.71875,2.29771,1.236641,-1.541985,4.35,-23.1,44.700001
188144400.0,-366.699188,-489.257782,794.433533,1.80916,0.732824,0.145038,3.75,-24.450001,43.800003
188317536.0,-325.683563,-634.765625,571.777344,-4.885496,5.358778,-0.328244,4.05,-23.25,43.800003
188492896.0,-478.515594,-923.339783,614.257813,0.763359,3.89313,1.48855,3.6,-23.1,43.950001
188665680.0,-238.769516,-555.175781,645.996033,-0.099237,0.969466,0.137405,3.3,-23.700001,43.5
188838720.0,-710.449158,-454.101532,825.195251,-1.175573,4.931298,1.160305,4.65,-23.550001,43.650002
189013120.0,-684.570251,-494.628876,603.515625,-4.473282,6.030534,1.908397,4.05,-23.700001,43.800003
189950416.0,-573.730469,-451.171844,674.316345,6.343512,1.603053,4.648855,4.35,-23.85,42.900002
190123088.0,-585.449219,-385.742157,650.878845,-0.870229,4.251908,2.984733,4.5,-23.700001,43.5
190297664.0,-449.707001,-713.867126,601.074219,5.610687,1.709924,4.145038,4.05,-23.700001,43.800003
190469488.0,-332.519501,-806.152283,755.859314,1.534351,6.091603,3.557252,3.9,-22.650002,42.450001
190641248.0,-443.847626,-1147.949219,570.3125,3.526718,1.977099,-0.900763,3.9,-22.650002,42.450001
190814336.0,-167.968735,-768.066345,576.660156,0.419847,0.732824,0.053435,4.35,-23.550001,43.200001
190985920.0,-364.746063,-831.054626,423.828094,-6.236641,4.541985,-2.29771,3.9,-23.1,42.450001
191157088.0,-335.937469,-745.117126,493.652313,-1.946565,1.045802,-2.801527,4.5,-23.700001,43.050003
191330688.0,-483.886688,-544.433594,632.8125,-8.137404,5.740458,-2.641221,3.6,-23.85,43.950001
191502064.0,-86.425774,-644.531189,783.203064,-1.938931,4.21374,3.21374,4.35,-23.85,43.650002
192450240.0,-347.656219,-997.558533,734.374939,0.793893,0.0,-0.961832,4.65,-23.550001,43.200001
192621872.0,-496.093719,-680.17572,715.33197,2.48855,-2.656489,-1.29771,3.6,-23.550001,43.650002
192793104.0,-597.167969,-735.351501,571.289063,-1.900763,-0.21374,-0.290076,3.6,-23.550001,43.950001
192966544.0,-741.210876,-764.648376,482.910126,2.374046,1.251908,1.877863,4.65,-23.550001,43.200001
193137632.0,-537.597656,-499.999969,529.296875,-3.656489,6.503817,1.717557,4.05,-24.450001,43.050003
193308720.0,-603.515625,-789.062439,371.582001,-1.847328,5.908397,4.839694,3.9,-23.1,43.200001
193482240.0,-321.777313,-558.59375,539.0625,0.290076,7.022901,3.099237,5.1,-24.300001,43.950001
193654256.0,-467.285126,-421.386688,610.839844,-6.641222,5.167939,1.923664,3.75,-24.150002,43.050003
193853536.0,-213.378891,-779.785095,603.027344,-1.40458,4.91603,2.412214,3.9,-23.550001,42.900002
194022736.0,-684.570251,-605.957031,725.097595,2.938931,-2.725191,-4.648855,4.05,-24.150002,43.050003
194949648.0,-765.624939,-504.882782,744.140564,1.030534,3.045802,1.267176,4.65,-23.550001,44.400002
195122000.0,-689.453064,-854.980408,493.164032,0.885496,4.59542,4.89313,4.05,-24.150002,43.5
195291968.0,-313.476563,-909.179626,594.238281,4.198473,2.954198,3.59542,3.9,-24.750002,43.200001
195461968.0,-121.093742,-872.558533,435.058563,-8.244275,6.687023,2.267176,5.25,-23.700001,43.800003
195634240.0,-105.468742,-780.761658,437.988251,-4.603054,3.465649,-2.572519,4.5,-23.700001,43.5
195804544.0,-349.121063,-338.378876,853.515564,-0.80916,2.549618,-3.519084,3.6,-23.550001,43.950001
195975664.0,-602.050781,-655.761658,725.585876,-4.473282,5.389313,-3.076336,4.65,-23.85,44.400002
196149760.0,-568.359375,-398.437469,881.347595,3.19084,-0.206107,-2.770992,4.65,-24.300001,44.400002
196323344.0,-702.148376,-576.660156,748.046814,-2.229008,5.122138,-2.129771,5.85,-23.550001,42.450001
196496544.0,-395.019501,-741.699158,664.55072,-1.80916,8.274809,1.48855,5.4,-23.550001,41.400002
197449680.0,-410.644501,-1041.503906,680.17572,7.709924,2.961832,0.541985,5.85,-22.650002,43.200001
197622704.0,-339.355438,-868.652283,730.468689,-0.694656,8.259542,-0.725191,6.15,-23.550001,43.650002
197796336.0,-432.128876,-995.117126,678.222595,6.839694,2.030534,1.526718,5.1,-23.1,43.650002
197972800.0,-346.679657,-882.324158,705.078064,-1.916031,6.625954,-0.251908,6.75,-22.950001,44.25
198146432.0,-427.734344,-1125.488281,579.101563,3.961832,3.801527,1.412214,6.15,-23.85,42.450001
198319808.0,-315.429688,-837.402283,717.285095,-0.030534,8.290076,-1.206107,6.45,-26.1,43.050003
198495344.0,-411.132782,-1035.15625,646.484314,5.603054,3.763359,1.198473,6.45,-23.25,42.300003
198670080.0,-332.031219,-805.17572,734.86322,-0.442748,6.961832,1.160305,7.2,-24.150002,42.300003
198844416.0,-401.855438,-676.26947,617.675781,7.526718,4.91603,-0.351145,6.0,-23.25,42.300003
199022576.0,-690.429626,-656.73822,540.527344,3.984733,3.312977,-2.900763,8.700001,-24.150002,41.550003
199946272.0,-705.566345,-702.636658,468.261688,-1.282443,4.19084,-3.10687,7.95,-24.450001,41.550003
200122912.0,-481.445282,-644.531189,724.609314,4.977099,1.358779,-6.671756,8.25,-22.5,42.300003
200301088.0,-552.246094,-914.062439,604.003906,0.923664,1.80916,-4.015267,7.95,-23.700001,42.300003
200477824.0,-195.800766,-672.36322,848.632751,2.274809,2.755725,-5.748092,9.3,-23.85,40.950001
200654560.0,-258.789063,-820.80072,609.375,3.496183,6.664122,0.129771,9.6,-24.300001,42.450001
200834048.0,-293.945313,-433.105438,615.234375,-3.664122,11.854961,1.977099,9.450001,-22.950001,41.550003
201010800.0,-558.105469,-488.769501,645.01947,3.961832,3.610687,-0.78626,9.6,-22.650002,40.650002
201187584.0,-578.125,-726.562439,526.367188,-7.419847,10.236641,-4.541985,9.3,-22.650002,41.700001
201366192.0,-354.980438,-576.171875,613.28125,0.389313,4.59542,-6.923664,10.05,-23.550001,40.200001
201543312.0,-454.589813,-763.183533,582.519531,-1.442748,10.549619,-0.236641,11.1,-23.550001,40.950001
202539360.0,-758.789001,-725.097595,610.839844,8.78626,4.59542,1.061069,10.8,-23.1,38.700001
202716240.0,-837.890564,-651.855408,566.894531,-0.10687,5.763359,-2.290076,10.200001,-23.25,40.800003
202893168.0,-556.640625,-389.648407,789.55072,3.320611,1.129771,-6.167939,11.25,-23.700001,39.75
203072144.0,-442.871063,-791.503845,641.601563,1.091603,0.916031,-9.007633,12.6,-23.550001,39.900002
203249952.0,13.183593,-586.425781,807.128845,-6.877862,6.10687,-4.992366,11.85,-23.550001,38.700001
203427712.0,-142.089844,-842.285095,569.335938,2.083969,7.053435,0.832061,11.55,-23.85,38.700001
203607296.0,-375.488251,-769.531189,443.847626,-6.282443,12.946565,-0.480916,13.05,-23.85,39.150002
203785056.0,-516.601563,-559.082031,510.253876,4.70229,6.198473,-2.198473,12.3,-23.1,38.400002
203962320.0,-770.01947,-842.773376,422.851532,-1.221374,6.282443,-0.984733,12.900001,-24.150002,38.550003
204141408.0,-395.996063,-660.156189,653.808533,6.625954,2.007634,1.862595,12.6,-23.550001,37.650002
205138240.0,-660.64447,-600.585938,560.546875,-0.549618,8.503817,0.687023,13.8,-24.300001,36.900002
205315840.0,-516.113281,-363.769501,873.535095,0.854962,4.19084,-3.526718,13.950001,-23.700001,37.800003
205495024.0,-478.027313,-749.999939,672.36322,-1.824427,2.328244,-4.946565,13.950001,-23.25,37.800003
205672432.0,-77.636719,-488.769501,607.421875,-7.274809,8.40458,-5.961832,13.8,-23.85,36.150002
205849824.0,-160.15625,-844.726501,475.097626,0.916031,3.450382,-0.961832,13.200001,-23.700001,37.5
206029536.0,-413.574188,-1039.550781,506.347626,-1.671756,6.221374,2.625954,13.8,-25.500002,35.700001
206207392.0,-437.011688,-694.824158,638.183594,4.877862,5.335878,3.305344,13.650001,-23.700001,37.050003
206385136.0,-869.628845,-719.23822,592.285156,5.740458,3.458015,-2.076336,13.35,-22.650002,36.150002
206565136.0,-613.28125,-461.914032,733.398376,-1.770992,2.427481,-3.458015,13.8,-24.300001,36.900002
206743104.0,-286.621094,-607.421875,545.898438,-3.679389,10.335877,2.526718,13.950001,-24.450001,35.550003
207737872.0,-459.472626,-298.828125,673.339783,-2.870229,3.183206,-0.389313,14.55,-24.300001,35.700001
207917328.0,-626.464844,-812.98822,532.714844,-1.564885,6.343512,-4.40458,14.400001,-23.700001,36.300003
208095120.0,-264.160156,-670.410095,525.390625,-6.0,6.419847,-6.641222,13.8,-24.300001,35.400002
208273456.0,-264.648438,-869.628845,622.558594,4.450382,1.206107,-1.229008,14.55,-25.050001,36.450001
208453824.0,-491.210907,-1062.988281,622.558594,0.977099,4.992366,2.610687,14.700001,-24.900002,35.550003
208631904.0,-367.187469,-489.746063,684.570251,3.78626,4.870229,1.0,16.200001,-24.900002,35.550003
208810032.0,-725.585876,-609.863281,684.570251,4.908397,3.465649,0.496183,15.750001,-23.550001,35.700001
208989904.0,-502.929657,-540.039063,764.648376,-7.167939,5.541985,-4.145038,15.150001,-24.150002,35.550003
209169184.0,-23.925779,-501.953094,623.046875,-0.992366,2.603053,-3.328244,14.85,-25.050001,35.700001
209348576.0,-609.863281,-571.289063,537.597656,-2.969466,7.664122,0.053435,14.700001,-26.1,35.25
210346672.0,-653.320251,-696.289001,531.738281,5.580153,-2.328244,-2.954198,16.200001,-25.35,33.75
210525936.0,-419.921844,-932.617126,658.203064,-0.251908,1.183206,-2.603053,15.750001,-25.800001,35.400002
210705728.0,-167.968735,-433.593719,665.039001,-0.862595,8.801527,0.78626,16.650002,-24.150002,34.5
210887440.0,-572.753906,-543.457031,583.007813,1.664122,2.503817,-2.221374,16.5,-25.050001,35.400002
211067296.0,-478.027313,-809.570251,498.046844,-6.305344,7.022901,-1.412214,16.050001,-25.800001,34.650002
211247232.0,-208.496078,-736.816345,649.902283,-0.221374,6.91603,-0.061069,16.950001,-24.900002,33.75
211429168.0,-438.476532,-865.722595,662.109314,6.931298,0.221374,1.419847,16.5,-25.050001,34.650002
211609088.0,-713.378845,-614.746094,700.683533,-2.450382,3.10687,-2.877863,16.5,-25.500002,34.200001
211789520.0,-114.257805,-522.460938,687.011658,-3.236641,4.59542,-5.694656,16.5,-25.050001,33.900002
211972032.0,-611.328125,-861.816345,487.304657,5.656488,6.175572,0.793893,16.200001,-25.35,34.5
212946176.0,-551.757813,-675.292908,665.039001,-2.732824,3.679389,-5.374046,17.25,-26.250002,32.400002
213129584.0,55.175777,-649.902283,706.054626,-2.648855,7.389313,0.648855,16.950001,-25.650002,32.550003
213310384.0,-648.437439,-583.007813,573.242188,2.587786,3.427481,-6.328244,17.700001,-26.1,32.550003
213491168.0,-607.421875,-543.457031,625.488281,-0.778626,2.503817,-5.122138,16.950001,-26.85,32.550003
213673808.0,-560.058594,-182.617172,499.511688,0.267176,6.580153,2.290076,17.550001,-25.500002,31.200001
213854928.0,-373.046844,-671.874939,602.050781,-1.564885,9.862596,3.816794,18.150002,-26.1,32.25
214035776.0,-248.535141,-636.71875,520.507813,-0.40458,9.954199,2.610687,16.650002,-25.35,31.800001
214218448.0,-169.433578,-966.796814,645.01947,-1.541985,8.259542,0.175573,17.400002,-26.400002,31.050001
214399184.0,-221.679672,-1044.921875,648.437439,-1.152672,7.335878,-1.694656,17.400002,-26.400002,31.800001
214580304.0,-605.46875,-586.425781,617.675781,-4.419847,4.694656,-3.29771,16.5,-27.450001,31.200001
215549680.0,-607.421875,-208.496078,476.074188,-1.015267,5.694656,-0.015267,18.150002,-28.050001,32.550003
215730944.0,-638.671875,-490.234344,604.003906,-1.099237,2.0,-5.763359,18.0,-25.500002,30.900002
215938480.0,-580.078125,-437.011688,531.25,-2.450382,5.030534,1.78626,16.650002,-27.300001,30.300001
216117760.0,-386.718719,-618.652344,543.945313,-2.160305,7.625954,4.343512,18.150002,-27.300001,31.050001
216297488.0,-49.804684,-844.726501,499.511688,-3.030534,8.610687,0.885496,17.25,-27.000002,29.700001
216479552.0,-208.98436,-988.281189,730.468689,-3.732824,4.389313,-6.687023,17.700001,-27.300001,31.050001
216659184.0,-578.125,-685.058533,509.765594,-3.022901,3.870229,-4.236641,18.150002,-26.85,30.000002
216839216.0,-657.226501,-747.070251,572.265625,-2.083969,5.244275,-6.549618,18.300001,-27.450001,30.150002
217021104.0,-667.480408,-357.421844,413.085907,2.152672,5.992366,0.717557,18.6,-27.6,31.800001
217201168.0,-356.445282,-865.234314,614.746094,-5.450382,2.832061,-4.977099,18.300001,-27.000002,30.900002
218149952.0,-466.308563,-905.761658,541.992188,-1.839695,2.618321,-5.221374,18.6,-26.85,30.000002
218332192.0,-622.558594,-541.015625,647.460876,0.19084,-0.007634,-3.641221,17.400002,-28.050001,28.800001
218513504.0,-782.714783,-599.121094,552.246094,2.916031,0.328244,2.305344,18.75,-27.450001,28.650002
218694688.0,-745.117126,-501.953094,562.5,-0.557252,4.977099,0.465649,18.0,-27.450001,29.400002
218877776.0,-495.117157,-374.023407,543.457031,0.244275,2.725191,5.610687,17.400002,-27.300001,30.300001
219059152.0,-447.753876,-547.851563,593.75,-0.78626,5.473282,4.641222,18.150002,-28.500002,29.550001
219240816.0,-328.613251,-765.136658,568.847656,-3.145038,9.931297,4.08397,17.400002,-26.85,29.550001
219424448.0,-161.621078,-719.726501,510.253876,-0.587786,7.458015,3.374046,18.6,-28.500002,29.550001
219605792.0,-170.898422,-962.890564,683.105408,-3.732824,4.740458,0.778626,18.150002,-27.6,28.800001
219786784.0,-174.316391,-782.714783,563.964844,0.778626,7.465649,0.412214,18.900002,-27.300001,29.250002
220750080.0,-191.894516,-932.128845,747.070251,-0.641221,1.015267,-1.931298,18.300001,-27.900002,28.950001
220931888.0,-114.746086,-888.183533,733.886658,-2.458015,3.221374,-1.816794,18.900002,-28.500002,30.150002
221115296.0,-211.425766,-804.687439,794.921814,-2.496183,0.091603,-5.610687,18.300001,-29.1,28.950001
221296896.0,-536.132813,-805.664001,691.406189,-4.038168,1.687023,-2.389313,19.650002,-27.6,28.050001
221478800.0,-474.121063,-709.960876,617.1875,-1.78626,0.114504,-3.320611,18.6,-28.050001,29.250002
221662384.0,-620.605469,-785.64447,592.773438,-1.145038,-0.045802,-5.396946,18.900002,-27.300001,29.250002
221844288.0,-654.785095,-423.339813,503.417938,0.122137,4.519084,-3.038168,17.700001,-27.6,28.500002
222026112.0,-740.234314,-581.542969,594.238281,1.48855,3.183206,-0.366412,18.6,-27.300001,28.800001
222210496.0,-731.445251,-509.277313,566.40625,-0.083969,3.900763,1.015267,17.400002,-26.400002,28.800001
222392336.0,-396.972626,-602.050781,645.01947,-2.129771,7.816794,1.206107,18.150002,-27.6,29.250002
223351408.0,-386.718719,-547.363281,460.449188,-0.320611,5.740458,4.351145,19.35,-28.500002,30.300001
223534880.0,-135.742188,-794.921814,570.3125,-3.465649,6.099236,3.48855,18.300001,-28.200001,28.950001
223716544.0,-183.593735,-957.031189,628.417969,-2.89313,5.282443,1.320611,18.150002,-26.85,28.500002
223898576.0,-110.351555,-911.621033,656.249939,-1.221374,2.519084,-1.068702,18.6,-28.050001,28.800001
224082016.0,-509.277313,-918.945251,687.98822,-1.549618,-0.633588,-4.648855,18.0,-28.200001,28.950001
224263728.0,-638.183594,-645.507751,586.914063,2.076336,-0.244275,-6.198473,19.35,-28.050001,28.800001
224445424.0,-559.570313,-608.886719,680.17572,-1.083969,0.458015,-3.465649,18.6,-26.85,29.250002
224629184.0,-649.414001,-422.363251,549.316406,-0.40458,1.503817,-1.053435,19.050001,-28.650002,27.900002
224810976.0,-658.203064,-521.484375,598.144531,-2.480916,5.198473,1.427481,18.300001,-27.000002,30.150002
224992672.0,-598.144531,-480.468719,504.882782,-2.610687,8.870229,4.335878,18.75,-28.650002,28.200001
225951280.0,-261.230469,-731.933533,525.878906,-1.030534,7.305344,3.992366,18.900002,-27.300001,29.250002
226133072.0,-145.019531,-869.628845,493.164032,-0.503817,6.717557,2.908397,19.050001,-28.650002,28.650002
226314352.0,-167.480453,-929.199158,719.726501,-0.954198,4.633588,-1.70229,19.35,-28.500002,27.300001
226496432.0,-232.910141,-971.679626,725.097595,1.083969,0.717557,-5.351145,18.150002,-28.800001,28.800001
226677984.0,-426.269501,-846.191345,799.316345,-1.442748,0.0,-2.832061,19.35,-28.050001,28.500002
226859792.0,-519.53125,-842.773376,753.417908,-0.717557,1.320611,-3.984733,18.6,-28.800001,27.300001
227043216.0,-598.144531,-575.683594,609.375,-1.839695,0.312977,-5.335878,19.650002,-28.800001,27.750002
227224784.0,-626.464844,-515.625,551.757813,-2.89313,4.038168,-1.435115,18.6,-28.050001,28.050001
227406384.0,-638.183594,-365.722626,468.749969,-2.312977,3.358779,-1.687023,18.75,-28.200001,27.450001
227589952.0,-687.011658,-596.191406,447.753876,-0.030534,4.648855,2.534351,20.25,-29.400002,28.200001
228547728.0,-280.273438,-882.812439,642.089844,-3.717557,8.374045,3.328244,19.800001,-29.85,27.900002
228726416.0,-207.519516,-958.496033,657.714783,-2.022901,1.969466,-4.419847,18.900002,-28.500002,27.300001
228905584.0,-703.61322,-612.304688,539.550781,-2.78626,3.923664,3.51145,19.650002,-29.700001,27.750002
229080544.0,-90.332024,-869.140564,594.238281,-1.801527,4.450382,-3.160305,18.150002,-29.700001,28.500002
229256240.0,-546.386719,-580.566406,600.097656,-3.022901,-0.061069,-2.870229,19.35,-28.800001,28.050001
229433104.0,-254.394516,-476.562469,517.089844,-1.770992,8.160305,4.305344,19.5,-28.200001,27.900002
229608384.0,-197.26561,-823.242126,708.984314,-1.541985,1.40458,-2.938931,19.35,-29.250002,28.500002
229783280.0,-625.0,-239.257797,510.253876,0.427481,-0.030534,1.580153,18.150002,-28.800001,27.300001
229960800.0,-96.67968,-859.86322,591.308594,-1.618321,4.251908,-0.389313,19.5,-28.650002,27.900002
230135824.0,-440.917938,-963.378845,715.820251,-3.580153,-0.473282,-4.236641,18.900002,-29.250002,27.300001
231051984.0,-626.464844,-498.046844,502.929657,-1.015267,7.183206,4.648855,18.75,-28.650002,27.900002
231226912.0,-152.34375,-902.343689,757.324158,-6.099236,3.099237,-2.198473,18.900002,-28.500002,27.300001
231402192.0,-564.453125,-611.328125,638.671875,-2.244275,-1.198473,-1.175573,17.25,-29.1,28.200001
231579632.0,-259.765625,-690.917908,649.902283,-1.534351,7.19084,5.564886,18.6,-30.000002,27.750002
231754688.0,-495.117157,-731.933533,818.847595,-2.312977,-2.335878,-3.152672,18.900002,-29.250002,27.750002
231929680.0,-602.050781,-556.640625,612.792969,1.076336,4.221374,5.48855,17.700001,-28.800001,28.050001
232106432.0,-226.562485,-1094.726562,790.527283,-1.572519,1.198473,-4.068702,18.6,-28.050001,28.500002
232281584.0,-771.484314,-559.570313,524.414063,0.229008,3.557252,1.21374,18.900002,-28.800001,26.550001
232456656.0,-223.144516,-917.480408,622.558594,-0.70229,3.984733,3.625954,18.6,-28.500002,28.050001
232633488.0,-197.26561,-945.80072,717.285095,-2.900763,2.801527,-3.267176,20.1,-28.800001,28.500002
233550384.0,-552.246094,-241.699203,469.238251,-0.732824,4.129771,3.572519,20.1,-28.050001,27.300001
233725792.0,34.667969,-746.58197,591.308594,-3.580153,4.312977,3.435115,18.150002,-28.500002,27.750002
233902528.0,-707.51947,-578.613281,690.429626,-0.366412,1.946565,-2.259542,18.75,-28.200001,27.150002
234077616.0,-230.468735,-638.183594,516.601563,3.038168,4.832061,2.015267,18.75,-28.650002,27.900002
234252384.0,-311.035156,-864.746033,715.33197,-0.007634,-3.358779,-4.78626,18.6,-29.700001,28.050001
234430208.0,-593.75,-489.257782,483.886688,-0.335878,4.244275,2.969466,18.6,-28.800001,28.500002
234605120.0,-230.957016,-1071.289062,666.503845,-2.259542,3.381679,-1.763359,18.900002,-28.050001,27.300001
234780192.0,-672.851501,-392.089813,459.472626,-2.587786,4.221374,0.244275,18.900002,-28.500002,28.050001
234956448.0,-8.789063,-834.960876,595.214844,-4.08397,5.129771,1.328244,18.900002,-28.800001,28.050001
235131904.0,-68.847656,-880.371033,758.30072,-3.977099,1.946565,-1.259542,19.050001,-28.200001,27.150002
236050784.0,-699.218689,-497.558563,547.363281,-0.801527,5.114504,-2.961832,18.300001,-28.200001,27.900002
236228144.0,-182.128891,-736.816345,643.554626,-0.801527,3.862595,2.992366,19.650002,-29.250002,27.000002
236403328.0,-472.167938,-802.246033,663.085876,-1.526718,-0.21374,-4.175572,18.900002,-28.800001,27.000002
236579152.0,-609.863281,-560.058594,526.855469,3.244275,7.282443,4.38168,19.650002,-28.500002,27.300001
236756176.0,-302.246094,-974.121033,727.539001,-2.961832,0.984733,-4.625954,19.35,-28.500002,27.750002
236931360.0,-628.417969,-474.609344,538.574219,-5.847328,2.549618,-2.473282,18.300001,-28.650002,27.150002
237132672.0,-110.351555,-838.867126,727.05072,-0.030534,5.274809,0.580153,18.75,-29.1,27.900002
237306160.0,-605.46875,-476.562469,612.304688,2.290076,3.938931,-1.030534,18.75,-29.1,27.900002
237479968.0,-244.14061,-949.70697,663.574158,2.244275,2.183206,2.083969,19.800001,-28.650002,27.150002
237656400.0,-608.886719,-529.296875,741.210876,-0.824427,0.374046,-3.274809,19.5,-29.85,28.950001
238650384.0,-415.527313,-624.023438,614.257813,-1.480916,7.885496,3.992366,19.050001,-29.400002,26.700001
238826848.0,-91.308586,-813.964783,694.335876,-0.847328,0.648855,-0.89313,18.75,-29.85,27.150002
239005728.0,-654.296814,-577.148438,629.394531,-0.709924,-0.396947,-6.603054,18.6,-29.250002,26.550001
239182320.0,-379.882782,-508.789032,528.808594,3.618321,4.412214,3.648855,18.900002,-28.050001,25.800001
239359104.0,-102.050774,-953.61322,698.730408,-0.206107,2.862595,1.770992,18.6,-30.000002,26.550001
239537952.0,-715.33197,-621.582031,719.726501,1.442748,-0.534351,-3.778626,18.300001,-29.1,27.450001
239715744.0,-460.937469,-764.160095,544.433594,0.862595,9.366412,5.21374,19.050001,-28.650002,27.150002
239893648.0,-110.839836,-895.996033,624.511719,1.839695,2.656489,0.70229,18.300001,-29.400002,27.900002
240073472.0,-655.761658,-747.558533,540.039063,0.389313,0.51145,-3.89313,18.300001,-29.1,25.950001
240251184.0,-611.328125,-558.105469,586.914063,-2.412214,3.206107,-1.419847,20.1,-28.500002,27.750002
241250992.0,-420.898407,-522.949219,626.464844,-2.175573,7.770992,3.244275,19.5,-30.300001,27.450001
241428912.0,-10.742187,-712.890564,669.433533,-0.305344,0.946565,-3.0,18.900002,-30.750002,27.000002
241606608.0,-552.734375,-776.367126,711.914001,-3.946565,1.083969,-6.412214,18.300001,-29.1,27.150002
241786240.0,-642.089844,-403.320282,591.796875,-0.541985,4.61832,0.099237,20.25,-29.85,26.700001
241964000.0,-114.746086,-678.222595,638.183594,-3.053435,7.305344,2.763359,18.75,-30.300001,26.400002
242141984.0,-107.910149,-885.253845,734.374939,0.389313,2.21374,-0.152672,19.050001,-29.400002,27.150002
242321456.0,-582.03125,-482.421844,692.871033,-0.458015,0.389313,-2.083969,18.75,-29.1,28.200001
242499360.0,-603.515625,-534.179688,586.914063,-0.992366,7.854962,2.435115,18.75,-29.1,26.700001
242677360.0,-288.574219,-544.921875,495.117157,-2.519084,7.839694,2.29771,18.75,-29.400002,28.200001
242857312.0,-412.597626,-933.105408,599.609375,-2.465649,3.374046,-3.045802,18.6,-28.500002,26.550001
243851040.0,-749.023376,-632.8125,527.832031,-2.458015,1.992366,-1.961832,19.5,-29.1,26.700001
244029680.0,-664.062439,-526.855469,457.031219,0.259542,4.534351,3.137405,18.6,-29.250002,27.000002
244210384.0,-27.343748,-815.917908,515.136719,0.122137,5.580153,1.351145,18.6,-30.000002,26.250002
244388880.0,-366.210907,-1061.523437,721.191345,-5.076336,3.038168,-3.770992,18.75,-28.200001,25.950001
244567696.0,-684.08197,-649.414001,521.972656,-0.236641,-0.160305,-1.946565,19.35,-30.450001,27.300001
244748064.0,-630.859375,-557.617188,480.468719,-0.969466,4.862596,3.175573,19.650002,-30.450001,25.950001
244926544.0,-275.878906,-861.328064,614.257813,2.335878,3.435115,5.961832,18.6,-29.250002,25.800001
245105216.0,-114.746086,-973.632751,663.574158,-1.21374,0.053435,0.664122,19.650002,-29.700001,25.500002
245285776.0,-767.089783,-679.199158,634.277344,0.175573,1.854962,-3.419847,18.75,-29.85,26.700001
245464400.0,-765.624939,-774.902283,653.808533,-2.572519,-2.641221,-3.038168,18.75,-30.300001,25.950001
246448336.0,-782.714783,-565.917969,517.578125,-0.167939,1.114504,4.320611,19.5,-29.1,27.450001
246628304.0,-140.136719,-852.05072,562.988281,0.671756,2.625954,4.847328,18.900002,-29.250002,27.000002
246806656.0,-330.566376,-1035.644531,639.648438,-3.259542,0.770992,-1.961832,17.550001,-28.650002,26.700001
246984864.0,-670.410095,-583.007813,643.554626,-2.137405,-2.099237,-2.450382,20.1,-29.250002,27.300001
247165392.0,-554.199219,-618.652344,527.832031,-2.389313,3.923664,3.770992,19.35,-28.050001,26.550001
247343552.0,-118.652336,-919.433533,558.105469,-1.862595,2.778626,4.167939,20.1,-28.800001,27.300001
247521936.0,-447.753876,-808.105408,676.26947,-3.145038,-1.236641,-5.412214,18.300001,-29.1,27.150002
247701152.0,-577.148438,-507.324188,471.191376,-1.916031,5.946565,7.358778,19.800001,-28.200001,29.400002
247876608.0,-240.722641,-1007.324158,722.656189,-3.290076,-2.435115,-2.312977,18.150002,-27.6,29.550001
248052000.0,-689.453064,-391.601532,395.996063,-2.671756,2.221374,5.80916,17.700001,-27.6,29.550001
249047264.0,-10.742187,-808.105408,595.214844,-1.70229,1.534351,4.503817,18.900002,-28.500002,29.250002
249224128.0,-549.316406,-858.886658,718.261658,-3.274809,-2.351145,-4.290076,18.6,-28.500002,28.500002
249402144.0,-788.085876,-548.339844,531.25,-3.687023,2.656489,3.160305,18.150002,-28.500002,29.250002
249581840.0,-297.363281,-679.199158,556.152344,-5.068702,6.022901,7.10687,18.6,-28.050001,29.250002
249760112.0,-177.246078,-892.578064,784.667908,-3.068702,4.259542,4.687023,16.800001,-27.900002,29.700001
249938688.0,-218.261703,-839.843689,693.359314,-1.656489,1.343511,0.78626,18.150002,-26.85,29.550001
250189920.0,-737.792908,-583.496094,548.828125,0.312977,2.496183,7.068702,18.300001,-27.450001,29.700001
250369776.0,-626.953125,-561.523438,543.945313,-5.442748,1.259542,-0.244275,19.050001,-27.450001,29.700001
250548272.0,-190.917953,-825.195251,695.312439,-0.427481,-0.335878,4.755725,18.150002,-26.85,30.300001
250729808.0,-221.679672,-869.140564,669.921814,-2.977099,-0.557252,2.534351,18.75,-27.900002,30.900002
251651616.0,-463.378876,-792.968689,610.351563,1.015267,2.854962,10.076336,17.400002,-26.1,30.300001
251830592.0,-637.695313,-470.703094,502.441376,-2.48855,-2.442748,0.419847,17.700001,-27.6,31.500002
252010896.0,-272.460938,-920.410095,609.863281,-3.274809,-2.633588,-0.625954,16.800001,-26.250002,30.450001
252190000.0,-315.429688,-830.078064,738.76947,-1.870229,3.038168,7.015267,16.650002,-26.400002,31.500002
252368688.0,-699.218689,-517.578125,480.468719,-4.503817,1.389313,1.854962,17.550001,-26.700001,31.950001
252549360.0,-140.136719,-863.76947,700.195251,-2.274809,-4.068702,0.541985,16.950001,-27.6,31.500002
252727968.0,-891.601501,-504.394501,585.9375,-3.328244,2.29771,3.244275,17.25,-26.700001,32.400002
252907136.0,-102.539055,-749.999939,751.464783,-1.10687,-0.221374,7.10687,17.550001,-26.250002,32.400002
253087600.0,-486.816376,-704.589783,526.367188,-6.977099,-1.167939,-3.70229,17.550001,-25.800001,31.950001
253266656.0,-162.10936,-1078.125,743.164001,-2.793893,3.610687,5.10687,16.950001,-26.1,32.550003
254247808.0,-531.25,-511.718719,574.21875,-2.793893,-1.564885,-2.916031,17.700001,-24.450001,34.050003
254428032.0,-382.324188,-897.949158,729.980408,0.152672,2.274809,7.801527,16.950001,-25.35,34.050003
254606768.0,-445.312469,-452.148407,485.351532,-5.29771,-1.51145,-1.70229,15.900001,-25.35,35.25
254785328.0,-622.070313,-763.671814,777.83197,-1.343511,3.816794,4.496183,15.750001,-25.050001,33.900002
254965536.0,-169.433578,-775.390564,602.539063,-4.526718,-1.167939,-1.969466,16.650002,-25.35,34.050003
255143840.0,-609.863281,-579.101563,512.207031,-1.389313,5.08397,4.305344,16.950001,-25.35,34.050003
255322480.0,-220.214828,-846.191345,583.007813,-4.709924,0.816794,-1.748092,15.750001,-25.500002,33.900002
255502640.0,-816.89447,-611.328125,599.121094,0.473282,2.580153,7.496183,17.25,-24.750002,33.900002
255680976.0,-139.160156,-986.328064,764.648376,-1.442748,0.78626,1.427481,15.450001,-24.150002,34.050003
255860528.0,-337.402313,-606.933594,434.082001,-1.167939,0.427481,-3.473282,15.750001,-23.85,34.950001
256850672.0,-437.011688,-820.80072,685.546814,-1.236641,5.129771,7.671756,16.950001,-24.150002,34.800003
257028640.0,-481.933563,-895.507751,650.878845,-1.412214,-3.389313,-3.549618,15.450001,-24.450001,35.550003
257208672.0,-519.042969,-676.757751,695.312439,-2.870229,5.290076,5.396946,14.700001,-24.150002,36.0
257386560.0,-404.296844,-648.437439,510.742157,-0.381679,-4.374046,-0.251908,15.450001,-24.450001,35.25
257564992.0,-622.558594,-612.792969,727.539001,-3.40458,2.603053,5.274809,14.400001,-24.450001,35.25
257744768.0,-67.871094,-933.593689,643.554626,-4.732824,-0.541985,-2.885496,13.05,-24.300001,35.700001
257923024.0,-672.36322,-589.355469,499.511688,-3.137405,4.091603,4.61832,14.55,-24.300001,36.150002
258100960.0,-145.019531,-913.574158,675.781189,-4.328244,0.0,5.503817,14.85,-24.300001,35.400002
258281264.0,-754.882751,-394.042938,542.480469,-3.549618,0.564885,1.48855,14.55,-25.050001,35.400002
258459328.0,-637.207031,-464.355438,503.417938,-1.916031,-0.145038,2.091603,13.8,-24.750002,37.650002
259450992.0,-235.351547,-765.136658,434.570282,-6.610687,-3.473282,-0.610687,12.450001,-24.450001,37.5
259625328.0,-659.667908,-617.675781,670.898376,0.053435,3.381679,11.114504,13.05,-23.550001,37.950001
259803152.0,-312.011719,-942.871033,775.878845,-2.717557,-4.229008,-2.152672,13.200001,-22.5,37.800003
259982800.0,-688.964783,-587.402344,648.92572,-1.694656,1.480916,7.167939,13.8,-23.1,38.700001
260160704.0,-266.601563,-735.839783,598.144531,-5.877862,-1.801527,-2.519084,12.450001,-23.25,38.550003
260338464.0,-548.828125,-442.382782,747.558533,-4.496183,2.0,4.679389,11.85,-24.300001,38.700001
260518032.0,-99.121086,-1211.914062,700.195251,-4.358778,-1.793893,2.458015,12.450001,-22.5,39.300003
260695936.0,-594.726563,-430.664032,517.089844,-3.229008,2.549618,7.778626,11.85,-23.550001,39.450001
260873744.0,-248.04686,-949.70697,641.113281,-2.916031,-0.480916,5.625954,11.55,-23.1,39.150002
261054160.0,-45.898434,-1040.039062,710.449158,-5.954198,-2.183206,2.671756,10.950001,-22.950001,40.5
262051200.0,-648.92572,-473.144501,533.203125,-4.251908,1.625954,1.419847,11.55,-22.35,40.200001
262232336.0,-183.105453,-877.929626,726.562439,-0.908397,0.206107,6.229008,10.35,-22.650002,40.950001
262411472.0,-746.58197,-407.226532,481.933563,-4.0,-2.259542,1.778626,9.6,-23.550001,40.650002
262590384.0,-364.257782,-798.828064,787.109314,-2.572519,0.839695,7.38168,8.700001,-22.5,41.550003
262771712.0,-201.660141,-812.499939,608.886719,-5.740458,-4.816794,-1.625954,9.6,-22.35,42.900002
262951136.0,-482.910126,-641.601563,505.371063,-4.48855,4.755725,8.366412,9.75,-23.25,41.25
263129808.0,-177.246078,-861.816345,631.835938,-2.816794,-4.549618,-2.801527,9.3,-23.550001,42.150002
263310256.0,-853.515564,-625.0,623.046875,-2.832061,1.732824,6.458015,8.700001,-23.700001,41.550003
263488768.0,-192.382797,-992.187439,776.367126,-4.396946,-1.923664,1.274809,8.25,-23.700001,42.300003
263667568.0,-477.539032,-664.062439,768.066345,-1.10687,0.068702,5.389313,7.5,-23.700001,43.050003
264650320.0,-211.914047,-847.656189,630.859375,-6.290076,-3.847328,-0.427481,5.85,-23.550001,42.900002
264829088.0,-336.914032,-583.984375,571.777344,-2.198473,2.778626,7.137404,6.9,-23.1,43.200001
265007920.0,-341.308563,-925.292908,571.289063,-3.091603,-4.763359,1.229008,6.75,-22.950001,44.25
265188768.0,-604.980469,-673.828064,674.316345,-4.343512,5.625954,8.38168,5.85,-23.1,43.650002
265367136.0,-561.035156,-791.992126,678.710876,-2.251908,-3.259542,-2.099237,6.15,-23.1,43.200001
265545552.0,-581.542969,-565.429688,664.062439,0.381679,3.122137,4.679389,5.1,-23.550001,43.650002
265726112.0,-318.359375,-846.679626,619.628906,-3.114504,-2.580153,-0.923664,5.1,-23.85,44.400002
265904496.0,-543.457031,-584.472656,688.964783,-4.541985,4.694656,2.832061,5.4,-24.750002,43.950001
266083136.0,-94.238274,-1083.984375,740.234314,-2.954198,1.129771,2.480916,3.9,-23.85,44.400002
266263264.0,-824.218689,-612.792969,648.437439,0.900763,2.694656,6.839694,3.75,-22.050001,43.800003
267247024.0,-315.917969,-828.124939,732.910095,-2.053435,-0.694656,-1.900763,4.8,-24.150002,43.5
267425104.0,-688.476501,-519.53125,598.632813,-0.862595,1.671756,2.832061,4.65,-23.85,43.950001
267605120.0,-163.085922,-833.496033,755.371033,-3.358779,-1.236641,0.916031,4.5,-24.150002,45.0
267783280.0,-625.488281,-497.558563,692.382751,-2.068702,2.160305,2.282443,3.6,-23.85,45.450001
267961264.0,-138.671875,-1116.210937,710.449158,-2.648855,3.916031,3.564885,4.05,-24.150002,44.550003
268141120.0,-617.1875,-482.421844,549.804688,-4.045802,2.419847,0.931298,3.6,-25.800001,43.950001
268320096.0,-260.742188,-897.460876,693.359314,1.030534,4.274809,6.08397,3.6,-23.1,43.950001
268498624.0,-392.089813,-518.554688,560.058594,-1.801527,-2.221374,-4.221374,3.0,-24.450001,45.0
268679360.0,-569.824219,-801.757751,730.95697,-1.450382,4.312977,4.717557,3.3,-24.450001,44.25
268857760.0,-647.460876,-641.601563,677.246033,-1.847328,5.320611,6.358778,2.25,-22.5,44.25
269852288.0,-167.480453,-892.089783,735.839783,-1.091603,1.099237,2.312977,1.95,-25.050001,45.150002
270032864.0,-601.5625,-444.335907,568.359375,-5.274809,6.48855,1.671756,1.2,-24.750002,44.400002
270211264.0,-95.703117,-1025.390625,729.492126,-1.007634,2.885496,2.274809,2.25,-23.25,44.550003
270390144.0,-568.847656,-747.558533,576.171875,-1.641221,-0.587786,-2.137405,2.4,-24.750002,45.150002
270571968.0,-600.585938,-572.265625,689.941345,-2.038168,5.770992,4.442748,1.65,-24.300001,44.700001
270752480.0,-194.335922,-858.886658,717.285095,-1.984733,0.717557,-0.80916,1.8,-24.900002,45.0
270931968.0,-548.339844,-450.683563,657.714783,-3.480916,8.114504,1.793893,2.7,-23.85,45.150002
271110976.0,-63.476559,-1067.382812,695.312439,-3.244275,1.007634,1.709924,2.55,-24.450001,45.0
271288160.0,-538.085938,-562.011719,544.921875,-2.671756,6.389313,4.610687,1.65,-25.050001,44.700001
271465344.0,-359.374969,-796.386658,704.101501,1.503817,-3.526718,-6.748092,1.65,-23.550001,44.700001
272449312.0,-542.96875,-693.359314,684.08197,1.480916,5.633588,4.480916,2.25,-23.25,45.300003
272626688.0,-301.757813,-709.960876,586.425781,-0.290076,-0.496183,-2.984733,1.65,-25.050001,45.150002
272805632.0,-611.328125,-657.714783,742.187439,0.931298,5.045802,2.847328,3.15,-23.550001,44.400002
272983136.0,-141.113281,-876.953064,621.582031,-3.977099,2.358779,-5.549618,1.95,-23.550001,45.150002
273160448.0,-599.121094,-505.371063,506.347626,0.206107,5.687023,0.40458,1.8,-23.700001,45.0
273339520.0,-187.499985,-630.859375,514.648438,-3.229008,2.496183,-4.503817,1.5,-23.700001,43.800003
273516608.0,-693.359314,-719.23822,642.578064,2.0,4.770992,5.122138,2.7,-25.050001,45.450001
273694144.0,-388.183563,-887.20697,696.777283,-4.015267,0.793893,-3.007634,3.15,-23.85,44.400002
273872224.0,-427.734344,-723.14447,641.601563,3.480916,4.610687,4.984733,3.15,-23.85,44.400002
274048992.0,-594.238281,-756.835876,614.257813,0.076336,8.946565,4.793893,1.95,-23.85,43.950001
275042112.0,-338.867157,-907.714783,780.273376,0.465649,-2.740458,-3.725191,0.15,-25.050001,45.900002
275220864.0,-430.175751,-710.937439,687.499939,3.435115,1.854962,7.229008,2.4,-24.750002,44.700001
275397824.0,-568.359375,-507.812469,484.863251,-1.961832,0.251908,-4.839694,1.5,-24.900002,44.25
275574240.0,-257.8125,-675.781189,755.371033,-2.458015,6.305344,3.450382,1.5,-25.35,44.550003
275753344.0,-573.242188,-538.085938,486.816376,-3.641221,1.519084,-2.389313,2.25,-24.450001,45.0
275930272.0,-69.335938,-727.539001,745.605408,-2.091603,5.717557,5.91603,2.25,-24.150002,45.0
276107808.0,-522.949219,-431.640594,416.503876,-4.89313,4.442748,-2.78626,2.4,-24.750002,45.450001
276286816.0,-188.476547,-986.816345,712.402283,-2.923664,4.900764,5.610687,1.2,-24.300001,47.400002
276463872.0,-709.960876,-526.855469,521.484375,0.717557,-1.618321,-2.541985,1.2,-24.300001,45.450001
276641056.0,-418.457001,-395.019501,428.222626,-7.442748,2.381679,-4.229008,1.05,-23.700001,44.25
277637920.0,-245.605453,-1156.25,711.42572,0.847328,3.038168,3.923664,0.75,-25.650002,45.75
277814848.0,-673.828064,-519.042969,485.839813,-2.870229,4.580153,0.549618,1.05,-26.1,45.300003
277991872.0,-168.457016,-944.335876,664.062439,0.038168,3.679389,0.70229,1.8,-26.1,45.300003
278171168.0,-766.11322,-495.605438,491.699188,-3.618321,4.358778,-3.29771,1.05,-26.1,45.300003
278348512.0,-85.449211,-815.429626,730.95697,0.78626,1.122137,1.541985,1.05,-25.35,44.550003
278525472.0,-431.152313,-681.152283,517.089844,-5.328244,-0.343511,-4.137404,1.65,-25.050001,45.450001
278704448.0,-330.566376,-548.339844,642.089844,-1.053435,3.381679,3.824427,0.75,-25.650002,45.300003
278881536.0,-314.453125,-751.953064,473.632782,-4.526718,0.267176,-3.778626,0.45,-26.700001,44.700001
279058944.0,-798.339783,-603.027344,643.554626,-1.374046,5.251908,4.946565,1.2,-25.800001,45.450001
279236832.0,-479.003876,-757.324158,702.148376,0.320611,-3.709924,-5.442748,1.2,-24.750002,46.200001
280155712.0,-416.503876,-872.070251,665.039001,4.114504,3.78626,4.51145,1.65,-25.500002,45.900002
280331968.0,-326.660126,-634.277344,527.34375,-4.770992,-0.335878,-4.923664,0.15,-24.750002,45.450001
280510304.0,-480.468719,-682.617126,750.48822,0.541985,5.274809,3.923664,0.45,-25.500002,43.950001
280687040.0,-64.453125,-791.015564,736.328064,-3.778626,5.572519,1.656489,1.5,-25.35,45.75
280888416.0,-619.628906,-501.464813,573.730469,-5.687023,3.923664,1.48855,0.9,-26.250002,44.700001
281063488.0,-68.359375,-1002.441345,676.757751,-1.832061,2.122137,-2.748092,0.15,-24.750002,45.450001
281238688.0,-610.351563,-515.625,519.53125,-3.427481,6.236641,4.51145,-0.15,-24.750002,45.450001
281415264.0,-336.425751,-567.871094,467.773407,-2.458015,-0.709924,-0.938931,-0.3,-24.450001,46.050003
281589984.0,-257.8125,-973.14447,677.734314,-0.480916,7.473282,4.419847,0.75,-26.1,45.0
281764608.0,-361.816376,-627.441406,516.113281,-3.198473,0.603053,-4.198473,0.45,-25.050001,44.400002
282747360.0,-186.523422,-687.98822,754.882751,1.282443,5.328244,6.328244,0.3,-25.35,45.300003
282922016.0,-566.40625,-525.878906,497.070282,-3.694656,2.824427,-5.465649,-0.3,-24.450001,46.5
283098368.0,-74.707031,-791.015564,749.023376,-1.381679,4.633588,-1.648855,-0.45,-25.800001,46.650002
283274496.0,-442.871063,-617.1875,449.707001,-3.259542,2.435115,-3.709924,0.15,-24.750002,45.150002
283453568.0,-671.874939,-607.421875,686.035095,-0.198473,7.40458,5.648855,0.75,-25.35,45.75
283632864.0,-369.628876,-991.210876,684.570251,0.343511,0.29771,-5.244275,0.3,-25.35,45.75
283810016.0,-561.035156,-626.464844,735.351501,0.648855,7.778626,4.580153,0.75,-25.35,46.050003
283987104.0,-134.765625,-875.48822,703.124939,-0.290076,1.78626,-1.946565,0.45,-23.550001,44.400002
284166080.0,-644.531189,-445.312469,598.632813,-4.824428,7.519084,2.656489,0.45,-26.250002,46.200001
284342976.0,-150.390625,-837.890564,652.343689,-4.030534,0.694656,-4.160306,1.2,-25.050001,45.150002
285337440.0,-567.382813,-697.265564,548.828125,-1.10687,7.229008,5.801527,1.8,-24.450001,46.5
285514144.0,-364.257782,-605.957031,494.140594,-4.931298,1.709924,-4.236641,1.2,-26.250002,46.200001
285689312.0,-270.996094,-967.773376,624.511719,0.458015,8.160305,4.160306,1.65,-24.750002,45.150002
285864384.0,-643.066345,-572.265625,535.644531,1.030534,0.015267,-4.664122,1.65,-25.050001,45.450001
286041088.0,-246.093735,-931.152283,584.960938,-1.687023,3.450382,-1.137405,0.45,-25.050001,45.150002
286215456.0,-812.011658,-667.968689,654.785095,0.0,7.832061,4.40458,-0.15,-25.050001,45.450001
286390240.0,-362.792938,-937.011658,701.171814,-3.847328,1.083969,-3.366412,1.2,-25.050001,44.700001
286566304.0,-259.277344,-753.417908,689.453064,3.656489,5.954198,4.244275,1.2,-26.250002,45.450001
286740384.0,-805.664001,-445.800751,609.863281,-1.061069,1.847328,0.274809,-0.15,-25.050001,44.400002
286914720.0,-676.757751,-398.437469,484.374969,-3.725191,3.328244,-0.442748,0.9,-24.300001,45.150002
287847712.0,-139.648438,-907.226501,642.089844,-2.641221,0.274809,-4.08397,1.2,-25.500002,44.400002
288020896.0,-72.753906,-780.761658,762.20697,-1.572519,3.435115,1.519084,0.15,-25.050001,45.450001
288193344.0,-666.503845,-457.031219,558.105469,-4.969466,6.59542,-1.374046,1.5,-26.85,45.300003
288367776.0,-336.425751,-490.234344,551.757813,-2.80916,-0.992366,-4.732824,0.0,-24.450001,45.300003
288540448.0,-76.171875,-894.042908,675.781189,-2.78626,2.908397,0.564885,2.25,-24.150002,44.550003
288713472.0,-532.226563,-391.601532,692.871033,-1.633588,4.992366,2.679389,0.45,-25.500002,45.150002
288888000.0,-514.160156,-470.703094,560.058594,-5.244275,-1.145038,-3.916031,1.05,-25.35,44.25
289060864.0,-128.90625,-946.777283,645.996033,1.396947,-0.320611,-1.656489,0.9,-25.050001,45.150002
289233920.0,-505.859344,-567.871094,769.531189,0.030534,5.29771,6.244275,0.45,-24.300001,44.700001
289408064.0,-571.777344,-518.066406,493.164032,-1.137405,-1.229008,-5.183206,1.2,-25.500002,45.900002
290346880.0,-179.687485,-982.910095,772.949158,0.40458,0.671756,-4.198473,1.05,-26.1,45.300003
290518944.0,-481.445282,-719.726501,651.855408,0.458015,5.396946,5.160306,1.5,-25.650002,45.75
290693536.0,-876.464783,-561.523438,578.125,1.969466,4.877862,2.099237,1.5,-24.900002,45.75
290865856.0,-617.675781,-629.394531,589.355469,-0.916031,0.59542,-4.236641,0.9,-24.300001,45.150002
291038048.0,-204.101547,-873.046814,553.222656,0.251908,-0.099237,-1.862595,1.05,-24.150002,44.550003
291211872.0,-422.851532,-888.671814,602.539063,2.068702,5.824428,7.045802,0.15,-25.050001,45.900002
291384128.0,-683.105408,-460.449188,486.816376,-3.053435,5.29771,1.541985,-0.15,-25.500002,44.700001
291556480.0,-358.886688,-796.386658,453.613251,-5.374046,0.946565,-5.78626,0.75,-25.35,44.25
291730336.0,-67.382813,-1040.039062,684.570251,-1.450382,0.732824,-2.564885,1.2,-25.500002,45.450001
291901408.0,-293.945313,-876.953064,504.882782,-3.305344,1.572519,-3.870229,1.05,-25.35,45.75
292849888.0,-194.824203,-881.347595,676.26947,-1.625954,4.900764,2.641221,0.45,-25.500002,44.400002
293022432.0,-493.164032,-551.269531,546.875,-3.21374,9.816793,6.267176,1.05,-24.450001,45.300003
293194720.0,-503.417938,-463.867157,462.402313,-2.374046,0.801527,-2.19084,0.3,-25.650002,43.800003
293369248.0,-100.58593,-940.917908,659.667908,-5.305344,2.412214,-0.496183,2.55,-25.650002,46.5
293541600.0,-263.183594,-933.105408,665.039001,-2.076336,5.167939,5.145038,1.5,-25.35,44.550003
293714144.0,-518.066406,-328.124969,621.09375,-4.78626,4.59542,-0.206107,0.45,-25.050001,45.450001
293888224.0,-389.648407,-561.523438,558.59375,-5.061069,0.412214,-3.061069,1.2,-23.85,44.700001
294059872.0,-112.30468,-937.499939,672.851501,0.572519,2.206107,0.091603,1.8,-24.450001,44.550003
294232192.0,-474.609344,-467.285126,748.046814,-4.129771,6.725191,3.061069,0.15,-25.050001,46.650002
294406816.0,-281.738281,-755.859314,616.210938,1.70229,-2.992366,-3.022901,0.75,-26.1,44.25
295346912.0,-167.968735,-767.089783,747.558533,-0.458015,6.374046,3.259542,0.3,-25.650002,45.0
295520768.0,-530.273438,-448.730438,540.527344,-2.961832,0.824427,-1.083969,-0.15,-24.300001,45.900002
295696448.0,-49.804684,-810.058533,713.867126,-2.70229,1.412214,0.0,0.15,-25.050001,45.450001
295870720.0,-593.261719,-567.382813,703.124939,-2.862595,7.664122,4.778626,0.45,-25.800001,45.450001
296044544.0,-200.683578,-779.296814,622.558594,-3.022901,1.824427,-4.419847,0.75,-24.900002,45.0
296220672.0,-295.410156,-736.328064,653.320251,-4.19084,5.603054,3.900763,0.75,-24.450001,45.75
296395200.0,-584.472656,-383.789032,570.800781,-4.045802,4.656488,-1.473282,1.2,-25.050001,44.400002
296569536.0,-83.007805,-1108.886719,656.73822,-2.259542,4.236641,0.114504,0.75,-24.900002,45.75
296745568.0,-547.363281,-517.089844,561.035156,-2.221374,6.007634,3.412214,0.15,-25.050001,46.200001
296920512.0,-633.300781,-458.496063,665.527283,-1.335878,4.229008,0.78626,0.75,-25.35,45.75
297851328.0,-229.492172,-877.929626,651.367126,-1.030534,-0.89313,-1.007634,-0.15,-25.050001,45.150002
298028256.0,-383.789032,-560.546875,767.578064,-2.412214,7.160306,3.778626,1.65,-25.500002,43.950001
298202784.0,-495.117157,-520.996094,568.847656,-4.740458,3.022901,-5.167939,0.3,-25.35,44.25
298377536.0,-210.449203,-740.722595,654.785095,-3.183206,9.068703,5.908397,1.2,-25.050001,45.450001
298554976.0,-557.128906,-624.511719,433.593719,-3.045802,3.061069,-4.61832,0.45,-25.500002,44.400002
298731328.0,-133.300781,-924.804626,686.523376,1.068702,5.709924,4.076336,1.05,-24.150002,44.25
298906720.0,-667.480408,-739.746033,512.695313,0.244275,-1.442748,-5.40458,0.45,-25.500002,44.400002
299084704.0,-151.367188,-835.449158,621.09375,0.564885,2.664122,3.274809,1.5,-26.1,45.300003
299260640.0,-842.285095,-583.496094,527.34375,2.099237,0.083969,-1.335878,1.2,-24.750002,45.150002
299436416.0,-251.95311,-1061.035156,735.839783,3.442748,-0.763359,-1.328244,0.45,-25.800001,44.700001
300355360.0,-601.5625,-555.664063,683.593689,1.793893,4.839694,4.068702,0.45,-24.750002,45.150002
300531904.0,-349.121063,-779.785095,540.527344,-3.145038,-0.885496,-2.007634,1.5,-25.650002,44.550003
300708320.0,-534.179688,-501.953094,711.914001,-2.916031,7.709924,6.877862,1.5,-24.450001,46.5
300886400.0,-198.242172,-830.078064,657.714783,-4.740458,2.40458,-1.824427,0.0,-25.650002,44.25
301062560.0,-477.050751,-648.437439,552.246094,-2.061069,7.244275,5.603054,0.75,-24.450001,44.550003
301238784.0,-370.117157,-944.824158,527.34375,-1.694656,0.916031,-1.763359,1.5,-23.700001,45.300003
301417024.0,-72.753906,-867.67572,716.308533,-0.992366,2.954198,-2.030534,2.55,-24.450001,44.550003
301624320.0,-566.894531,-696.289001,656.73822,2.70229,4.931298,3.007634,1.05,-25.35,45.0
301797952.0,-458.496063,-412.109344,526.855469,-3.030534,0.259542,-4.450382,0.3,-25.650002,46.050003
301972896.0,-82.031242,-790.039001,684.08197,-0.89313,4.633588,3.10687,1.2,-24.750002,44.700001
302947488.0,-652.83197,-473.632782,536.132813,-3.045802,4.152672,-0.022901,1.2,-25.500002,45.150002
303123232.0,-22.949217,-958.984314,695.312439,-3.114504,2.541985,0.572519,0.3,-24.900002,45.0
303298976.0,-730.468689,-486.816376,470.214813,-2.267176,4.580153,1.763359,0.75,-25.650002,45.300003
303476448.0,-199.218735,-820.80072,558.59375,1.259542,0.091603,-0.442748,1.2,-24.300001,45.450001
303652160.0,-809.570251,-674.804626,666.503845,1.274809,4.167939,5.671756,0.9,-27.000002,44.700001
303828256.0,-184.570297,-895.01947,783.203064,2.778626,-0.992366,-1.801527,1.2,-24.300001,45.900002
304006144.0,-641.113281,-528.808594,615.234375,2.51145,4.312977,3.076336,0.3,-24.450001,45.300003
