Time [ms]	ACC_X [mg]	ACC_Y [mg]	ACC_Z [mg]	GYRO_X [dps]	GYRO_Y [dps]	GYRO_Z [dps]	MAG_X [uT]	MAG_Y [uT]	MAG_Z [uT]
8950003.0	-360.351532	-729.492126	-625.0	0.259542	-0.534351	0.824427	41.700001	-43.350002	28.800001
9120872.0	-381.347626	-772.949158	-648.92572	0.435115	-1.137405	1.183206	41.25	-43.350002	30.300001
9294021.0	-372.070282	-642.578064	-567.871094	0.778626	4.900764	-2.175573	40.650002	-42.900002	30.6
9464381.0	-401.855438	-702.148376	-566.40625	-0.625954	-0.320611	2.145038	40.800003	-43.800003	29.400002
9636830.0	-341.796844	-717.773376	-553.710938	1.267176	-0.687023	1.694656	42.600002	-43.050003	29.400002
9807626.0	-380.371063	-805.17572	-661.621033	2.572519	0.89313	-1.221374	40.650002	-42.900002	30.6
9978228.0	-345.214813	-719.23822	-636.71875	0.465649	0.068702	-2.89313	41.550003	-42.75	29.400002
10150514.0	-406.738251	-642.089844	-564.453125	1.29771	0.290076	-0.236641	40.950001	-42.900002	29.1
10321114.0	-402.343719	-710.937439	-580.078125	-0.206107	0.045802	4.61832	40.950001	-43.650002	30.6
10491837.0	-327.148407	-750.48822	-586.425781	0.70229	1.793893	1.381679	41.550003	-42.75	30.150002
10664252.0	-412.597626	-779.785095	-658.203064	-0.656489	1.145038	-1.687023	40.200001	-42.450001	28.500002
10834752.0	-399.902313	-764.160095	-661.621033	0.778626	3.664122	-1.396947	40.950001	-42.450001	29.550001
11005209.0	-406.249969	-706.054626	-562.5	1.198473	1.396947	-2.610687	42.300003	-43.800003	29.400002
11177634.0	-398.925751	-738.76947	-571.289063	1.10687	-2.740458	2.648855	40.350002	-42.75	30.150002
11348211.0	-304.199219	-713.867126	-609.375	0.450382	-1.374046	2.381679	40.200001	-43.350002	29.85
11518618.0	-346.679657	-681.152283	-560.546875	-0.458015	1.816794	-0.175573	42.300003	-44.25	30.150002
11716345.0	-383.300751	-779.296814	-634.765625	1.954198	-1.603053	1.916031	42.0	-42.150002	29.1
11884806.0	-299.804688	-768.554626	-600.097656	1.679389	0.832061	0.900763	41.550003	-42.300003	30.150002
12053905.0	-407.226532	-769.042908	-682.617126	0.183206	3.664122	0.656489	42.0	-42.900002	30.300001
12224720.0	-454.101532	-723.632751	-654.785095	0.091603	-0.152672	1.0	40.950001	-43.650002	28.050001
12393867.0	-369.140594	-687.499939	-526.367188	-0.450382	-0.396947	0.10687	41.25	-42.150002	28.800001
12562978.0	-293.945313	-710.449158	-558.105469	-1.343511	-0.664122	1.740458	41.25	-43.650002	28.800001
12733972.0	-397.949188	-772.949158	-696.289001	2.068702	1.847328	0.335878	41.100002	-43.800003	30.150002
12902932.0	-403.808563	-706.542908	-599.609375	1.770992	-1.931298	0.717557	42.0	-42.150002	29.1
13072083.0	-314.941406	-606.445313	-492.187469	0.526718	0.80916	1.290076	41.700001	-42.900002	29.550001
13243205.0	-366.699188	-713.378845	-622.558594	1.870229	0.541985	2.641221	39.900002	-43.350002	29.85
13413757.0	-333.496063	-760.253845	-640.625	1.053435	-0.763359	1.274809	40.800003	-43.5	30.450001
13584173.0	-383.300751	-718.749939	-618.652344	-2.458015	2.725191	-3.038168	41.100002	-43.5	29.400002
13756589.0	-422.363251	-750.48822	-634.277344	0.412214	-0.610687	0.656489	41.700001	-43.350002	29.1
13927280.0	-346.679657	-637.207031	-515.625	1.557252	-0.519084	2.832061	41.700001	-44.100002	30.300001
14097866.0	-351.074188	-743.164001	-634.277344	0.122137	0.320611	3.938931	41.100002	-43.5	30.450001
14270997.0	-320.800781	-791.015564	-624.023438	1.061069	0.618321	0.679389	40.800003	-43.800003	28.950001
14441807.0	-395.996063	-735.839783	-628.90625	0.007634	1.908397	1.29771	42.300003	-42.0	29.400002
14612852.0	-437.499969	-759.765564	-647.949158	0.267176	0.557252	2.175573	42.600002	-42.0	30.750002
14785620.0	-380.859344	-643.554626	-539.550781	-0.694656	1.770992	-2.015267	42.0	-40.950001	31.050001
14956336.0	-383.300751	-717.285095	-636.71875	1.412214	-1.473282	0.977099	40.350002	-43.050003	29.400002
15127116.0	-330.078094	-784.667908	-638.671875	1.053435	1.862595	-1.167939	39.900002	-42.450001	28.800001
15299987.0	-423.828094	-815.429626	-730.468689	-0.709924	3.648855	0.656489	42.0	-42.900002	29.1
15470945.0	-395.507782	-722.656189	-595.214844	1.977099	-0.458015	0.374046	41.100002	-43.800003	28.950001
15641882.0	-368.164032	-646.484314	-533.691406	-1.007634	0.267176	3.206107	41.25	-44.100002	28.500002
15818027.0	-370.605438	-682.617126	-548.828125	-1.427481	1.374046	2.458015	42.0	-41.700001	29.85
15992645.0	-369.628876	-740.722595	-618.164063	-0.70229	0.755725	2.251908	41.850002	-42.300003	29.400002
16167054.0	-394.042938	-758.789001	-597.65625	1.145038	-0.496183	0.206107	40.800003	-42.75	30.150002
16345532.0	-389.648407	-749.023376	-605.46875	-0.259542	1.679389	-1.221374	41.850002	-43.050003	29.400002
16521759.0	-352.050751	-714.843689	-624.023438	3.648855	0.374046	-1.076336	43.050003	-42.75	28.950001
16698268.0	-304.6875	-704.589783	-559.570313	-0.374046	1.267176	1.152672	41.100002	-42.75	29.700001
16876460.0	-359.863251	-797.36322	-596.679688	0.687023	-1.847328	1.916031	41.25	-42.900002	29.85
17055232.0	-300.78125	-707.51947	-565.917969	0.152672	-2.480916	0.267176	39.150002	-42.900002	29.550001
17234456.0	-379.394501	-718.261658	-624.511719	1.603053	0.687023	0.648855	41.25	-42.450001	27.000002
27262192.0	-381.347626	-657.226501	-550.78125	0.29771	0.610687	3.007634	42.600002	-42.75	29.400002
27444804.0	-470.703094	-739.257751	-669.433533	2.312977	2.70229	0.312977	40.950001	-42.450001	29.550001
27627626.0	-408.691376	-731.445251	-684.08197	-2.763359	3.251908	0.503817	42.75	-42.150002	29.85
27812520.0	-381.835907	-749.023376	-671.386658	-0.045802	1.152672	-1.48855	40.800003	-42.300003	29.400002
27995676.0	-287.109375	-729.003845	-593.75	0.961832	-1.290076	3.961832	41.700001	-42.450001	29.1
28179084.0	-394.042938	-730.95697	-589.355469	1.503817	-0.022901	4.580153	41.550003	-41.550003	30.450001
28364696.0	-415.527313	-726.562439	-588.378906	1.038168	-0.083969	-2.458015	42.0	-43.650002	28.500002
28547758.0	-382.324188	-708.496033	-597.65625	1.725191	1.267176	-0.633588	41.700001	-42.150002	29.85
28732726.0	-374.511688	-710.449158	-610.351563	-0.885496	0.320611	2.526718	40.950001	-42.900002	30.300001
28916100.0	-357.421844	-729.003845	-603.027344	0.48855	-0.465649	-0.519084	42.300003	-43.050003	30.150002
29940702.0	-391.113251	-797.36322	-717.773376	-0.48855	3.503817	-2.70229	41.700001	-42.450001	28.800001
30126026.0	-338.378876	-741.210876	-595.214844	-0.603053	-1.854962	0.641221	41.25	-42.150002	29.85
30309368.0	-368.652313	-691.89447	-547.851563	0.992366	1.572519	0.160305	41.100002	-43.800003	28.650002
30492992.0	-401.855438	-723.632751	-596.191406	2.618321	-0.465649	1.435115	41.25	-42.150002	29.1
30678238.0	-319.335938	-663.574158	-594.726563	2.053435	4.114504	-1.717557	40.650002	-43.350002	29.1
30861696.0	-396.484344	-759.277283	-611.328125	2.183206	-0.625954	-2.29771	41.850002	-43.5	29.400002
31045072.0	-352.539032	-718.261658	-590.332031	-1.160305	1.076336	0.656489	41.850002	-42.300003	29.700001
31231022.0	-412.597626	-719.726501	-576.660156	-3.435115	1.877863	5.938931	42.300003	-43.050003	28.950001
31414488.0	-422.363251	-695.312439	-616.699219	0.198473	1.236641	0.175573	40.950001	-41.400002	29.85
31597972.0	-396.972626	-734.86322	-652.83197	-1.519084	2.389313	0.687023	41.100002	-43.5	29.700001
32639820.0	-296.386719	-738.281189	-561.523438	1.923664	2.816794	0.305344	41.700001	-42.450001	30.6
32822966.0	-367.675751	-688.964783	-562.011719	0.175573	0.694656	2.320611	40.800003	-42.75	28.200001
33006290.0	-389.160126	-719.726501	-547.851563	1.40458	-1.633588	0.259542	42.0	-42.450001	29.1
33191244.0	-365.722626	-620.605469	-546.875	0.19084	1.320611	-1.610687	41.700001	-43.350002	29.1
33374244.0	-375.976532	-687.011658	-624.511719	1.312977	2.557252	-1.244275	43.650002	-42.300003	30.150002
5469126.0	-452.636688	-746.093689	-690.917908	-0.687023	5.022901	-1.51145	42.600002	-41.550003	30.150002
5654506.0	-400.390594	-690.429626	-559.570313	-1.236641	2.610687	-0.679389	43.200001	-40.650002	30.300001
5837724.0	-458.007782	-742.67572	-625.0	0.725191	0.847328	3.633588	42.0	-41.400002	30.300001
6023837.0	-364.746063	-645.01947	-559.570313	0.10687	0.045802	-0.564885	42.0	-42.900002	31.050001
6207199.0	-330.566376	-742.67572	-596.679688	1.435115	-0.175573	0.587786	42.75	-41.700001	29.85
6390411.0	-456.054657	-757.324158	-697.753845	-1.687023	4.946565	-2.671756	42.300003	-42.0	30.450001
6575480.0	-403.320282	-753.417908	-647.949158	1.572519	0.725191	0.007634	42.600002	-40.050003	30.150002
6759015.0	-448.730438	-723.14447	-597.65625	1.603053	-0.145038	1.022901	43.200001	-41.400002	30.300001
6942352.0	-358.398407	-635.742188	-557.128906	-0.374046	2.80916	-1.320611	42.0	-41.700001	29.85
7127524.0	-388.183563	-766.11322	-619.628906	4.076336	1.908397	-2.778626	42.600002	-41.550003	29.700001
7310806.0	-427.246063	-724.121033	-680.664001	-2.328244	2.007634	-0.381679	42.600002	-42.0	30.450001
7494331.0	-366.210907	-645.996033	-487.304657	-0.740458	1.519084	-0.412214	43.200001	-41.700001	29.1
7679399.0	-500.488251	-733.398376	-636.71875	0.59542	-0.40458	2.305344	43.200001	-41.400002	30.300001
7862565.0	-355.957001	-676.757751	-586.914063	0.633588	1.793893	0.091603	42.300003	-41.25	30.150002
8045656.0	-379.882782	-727.539001	-621.09375	2.679389	1.396947	0.641221	43.200001	-42.150002	29.550001
8231463.0	-463.378876	-753.417908	-686.035095	-0.89313	3.732824	-1.198473	42.600002	-42.300003	29.700001
8414719.0	-391.601532	-698.242126	-549.804688	0.152672	1.412214	1.534351	42.0	-42.450001	30.300001
8597866.0	-469.238251	-758.789001	-634.765625	2.015267	0.801527	3.160305	43.350002	-40.350002	30.150002
8782946.0	-346.679657	-641.601563	-563.476563	0.587786	0.541985	4.198473	41.850002	-41.550003	30.150002
8966400.0	-366.210907	-744.628845	-621.582031	1.206107	0.419847	-0.580153	43.050003	-41.25	30.450001
9149634.0	-459.472626	-749.999939	-686.523376	0.282443	2.618321	-1.618321	43.050003	-42.0	31.200001
9334575.0	-409.179657	-723.632751	-579.101563	1.129771	-1.030534	0.045802	42.600002	-42.300003	30.150002
9517707.0	-512.695313	-723.632751	-624.511719	0.0	-2.351145	1.824427	42.450001	-42.150002	29.85
9701131.0	-362.792938	-625.0	-544.921875	0.877863	1.541985	-0.610687	42.450001	-40.950001	30.300001
9886211.0	-369.140594	-756.835876	-622.070313	2.519084	0.030534	-2.236641	43.200001	-42.450001	29.550001
10068933.0	-368.164032	-690.429626	-582.03125	-2.450382	8.083969	-2.725191	41.850002	-41.25	28.950001
10251780.0	-436.523407	-768.066345	-689.941345	-0.442748	3.435115	-1.870229	42.600002	-41.550003	31.950001
10464391.0	-393.554657	-655.273376	-536.621094	-0.480916	0.755725	-0.70229	43.200001	-42.150002	30.300001
10645148.0	-364.257782	-734.374939	-587.890625	3.122137	0.763359	-3.129771	43.050003	-41.25	30.450001
10826818.0	-451.660126	-734.86322	-669.921814	-0.664122	4.007634	-1.137405	43.050003	-42.300003	29.700001
11010308.0	-374.999969	-720.703064	-605.46875	1.374046	-0.053435	-0.129771	43.050003	-41.25	30.750002
11192158.0	-512.695313	-739.257751	-614.746094	0.389313	-0.732824	0.503817	42.600002	-42.75	29.700001
11373897.0	-377.929657	-695.312439	-543.457031	-0.053435	3.938931	-1.137405	42.600002	-42.0	29.400002
11557341.0	-343.749969	-738.76947	-600.585938	1.854962	-0.374046	-1.610687	42.450001	-41.400002	29.550001
11739066.0	-466.796844	-722.656189	-677.734314	-1.114504	-0.618321	0.587786	43.350002	-40.350002	30.150002
11920768.0	-376.464813	-623.535156	-456.542938	3.083969	-0.618321	-0.557252	44.100002	-41.550003	30.150002
12104234.0	-487.792938	-706.054626	-579.101563	3.022901	-1.206107	2.526718	43.650002	-42.300003	31.200001
12287198.0	-381.347626	-705.078064	-597.167969	0.21374	0.221374	2.083969	43.200001	-40.650002	29.85
12470165.0	-431.152313	-749.511658	-645.996033	0.801527	0.572519	1.053435	42.300003	-41.25	28.650002
12655278.0	-476.074188	-689.453064	-703.61322	1.51145	-1.374046	2.419847	42.600002	-41.25	31.200001
12838293.0	-327.636688	-640.136719	-440.429657	0.977099	0.908397	2.816794	42.300003	-40.800003	30.450001
13021432.0	-469.238251	-704.101501	-603.515625	0.290076	1.908397	2.664122	41.25	-42.450001	29.85
13206843.0	-378.906219	-635.742188	-553.710938	1.78626	1.748092	1.801527	43.5	-42.900002	31.050001
13390264.0	-357.910126	-755.371033	-621.09375	3.870229	3.412214	-0.824427	43.200001	-41.700001	29.85
13573318.0	-421.874969	-710.449158	-663.085876	-0.931298	0.694656	0.312977	42.450001	-40.950001	29.85
13758180.0	-422.851532	-695.312439	-590.332031	0.412214	1.358779	0.59542	43.650002	-42.300003	29.700001
13941084.0	-479.492157	-749.999939	-639.160156	3.519084	0.083969	1.954198	41.550003	-42.0	30.450001
14124521.0	-353.515594	-635.742188	-550.78125	0.015267	4.877862	0.389313	42.450001	-42.450001	30.6
14309429.0	-363.769501	-753.906189	-603.027344	2.793893	-0.580153	-2.015267	41.850002	-41.550003	30.450001
14492490.0	-439.453094	-742.187439	-672.36322	-1.824427	1.427481	-0.167939	42.600002	-40.800003	29.700001
24460314.0	-395.996063	-672.36322	-547.851563	0.427481	-0.145038	1.641221	42.450001	-41.700001	29.550001
24645476.0	-421.874969	-735.839783	-658.691345	0.671756	1.801527	1.450382	42.600002	-41.550003	29.700001
24828644.0	-432.617157	-759.277283	-628.90625	0.114504	2.167939	-0.450382	43.350002	-42.0	30.450001
25012118.0	-477.050751	-769.531189	-711.42572	0.305344	2.229008	-0.229008	42.300003	-41.25	29.700001
25196934.0	-393.554657	-655.273376	-534.667969	1.091603	0.671756	0.427481	43.050003	-41.25	30.150002
25378808.0	-485.351532	-765.624939	-629.394531	1.618321	0.961832	2.900763	42.450001	-41.700001	31.35
25562066.0	-380.371063	-656.73822	-530.761719	-1.045802	1.305344	0.389313	41.700001	-41.400002	30.300001
25747464.0	-325.195282	-731.445251	-591.796875	2.610687	1.671756	0.022901	42.75	-40.650002	31.050001
25930594.0	-390.624969	-715.820251	-603.515625	0.19084	2.732824	0.259542	42.300003	-42.75	31.200001
26113690.0	-420.410126	-738.281189	-632.324219	-0.496183	1.21374	0.244275	41.550003	-41.550003	29.700001
27047572.0	-377.929657	-645.01947	-541.503906	-1.29771	-2.045802	1.221374	42.75	-41.400002	29.85
27230932.0	-420.898407	-753.906189	-683.593689	0.389313	1.137405	2.183206	43.050003	-42.300003	29.400002
27414200.0	-418.457001	-656.249939	-576.660156	0.496183	3.870229	2.694656	42.75	-41.700001	29.1
27599244.0	-433.105438	-681.640564	-658.203064	3.236641	-1.961832	3.274809	42.450001	-42.150002	30.300001
27782340.0	-388.183563	-632.8125	-495.605438	-0.450382	0.503817	1.19084	42.300003	-41.25	29.700001
27965756.0	-474.609344	-697.265564	-600.097656	2.061069	1.007634	-0.59542	41.700001	-42.150002	30.300001
28151396.0	-348.632782	-658.203064	-560.058594	-0.442748	2.541985	-1.748092	43.200001	-40.950001	30.6
28334544.0	-360.351532	-749.511658	-619.140625	2.328244	3.427481	-4.099236	42.600002	-42.300003	30.450001
28519494.0	-392.578094	-700.683533	-615.234375	-0.137405	1.89313	0.442748	43.050003	-43.050003	30.450001
28702936.0	-451.171844	-749.511658	-693.847595	2.458015	1.503817	-1.282443	42.75	-40.950001	31.35
29645570.0	-448.242157	-654.296814	-519.53125	0.580153	4.328244	-1.259542	42.300003	-42.300003	29.700001
29830782.0	-421.386688	-708.007751	-618.164063	1.938931	0.320611	1.022901	43.050003	-42.300003	27.900002
30014116.0	-409.179657	-714.355408	-617.1875	-0.549618	-0.435115	1.061069	42.75	-42.150002	30.6
30197516.0	-373.535126	-708.984314	-556.640625	-0.748092	6.160306	-3.160305	41.550003	-41.550003	30.450001
30382992.0	-464.843719	-808.593689	-773.437439	-0.694656	2.465649	-1.709924	43.950001	-42.150002	29.1
30566288.0	-472.656219	-694.824158	-549.316406	-0.21374	2.961832	-0.70229	43.950001	-40.950001	29.85
30749288.0	-369.628876	-642.578064	-515.136719	0.374046	2.862595	-0.351145	42.75	-41.400002	29.85
30934950.0	-402.343719	-751.953064	-621.09375	1.625954	2.70229	-2.473282	43.5	-41.700001	29.1
31118726.0	-370.117157	-698.730408	-604.003906	0.839695	3.725191	-2.763359	43.350002	-41.550003	31.500002
31302096.0	-423.828094	-754.882751	-664.55072	0.648855	3.549618	-1.175573	43.200001	-41.700001	28.800001
32248612.0	-481.445282	-738.281189	-609.863281	2.030534	-0.862595	3.503817	42.300003	-41.25	30.450001
32431756.0	-366.699188	-661.132751	-563.476563	1.664122	-1.175573	-1.389313	43.950001	-42.150002	29.550001
32615168.0	-370.605438	-780.273376	-652.83197	2.19084	0.480916	2.030534	44.100002	-40.800003	30.150002
32800128.0	-459.472626	-761.718689	-722.167908	2.198473	2.977099	1.305344	42.75	-42.150002	31.050001
32983248.0	-376.953094	-654.785095	-475.585907	0.053435	0.717557	1.21374	43.350002	-42.75	30.150002
33166266.0	-489.257782	-766.11322	-651.367126	1.229008	1.389313	-1.557252	42.0	-40.200001	29.85
33351344.0	-380.371063	-718.261658	-604.980469	2.007634	0.007634	-3.412214	42.75	-41.700001	29.85
33534580.0	-426.757782	-759.765564	-646.972595	-1.816794	4.068702	0.312977	42.450001	-41.700001	29.1
33717664.0	-450.683563	-744.140564	-734.374939	-0.244275	4.10687	2.732824	42.300003	-42.0	29.400002
33903052.0	-364.746063	-634.765625	-455.078094	0.366412	-2.48855	3.40458	42.0	-40.650002	29.550001
34841384.0	-450.195282	-717.285095	-586.914063	3.473282	-1.610687	4.335878	41.850002	-41.25	28.950001
35024736.0	-395.996063	-725.097595	-661.132751	2.022901	-0.969466	3.244275	42.450001	-40.950001	29.85
35209584.0	-445.800751	-812.011658	-645.01947	1.145038	-0.236641	0.160305	43.350002	-41.25	30.150002
35392696.0	-485.351532	-707.031189	-709.472595	2.083969	2.091603	0.977099	43.650002	-40.050003	29.400002
35575872.0	-364.257782	-616.210938	-457.519501	0.503817	-0.923664	-2.145038	43.200001	-40.950001	29.85
35761176.0	-489.257782	-718.261658	-601.5625	3.641221	-1.954198	-1.21374	41.550003	-40.800003	29.400002
35944320.0	-359.863251	-659.667908	-529.785156	1.40458	0.21374	1.137405	43.200001	-40.950001	29.550001
36127296.0	-363.769501	-769.042908	-637.207031	1.366412	1.832061	-4.725191	43.350002	-41.550003	29.700001
36312152.0	-439.453094	-708.984314	-626.464844	0.824427	1.091603	0.129771	42.600002	-42.300003	30.450001
36495596.0	-392.089813	-620.117188	-494.628876	-0.122137	2.412214	-1.465649	43.050003	-43.050003	29.700001
37444036.0	-406.738251	-662.597595	-516.113281	-0.473282	0.770992	-4.717557	43.200001	-42.900002	29.550001
37629696.0	-482.421844	-767.578064	-668.945251	1.442748	-2.29771	3.221374	43.200001	-42.150002	29.1
37812960.0	-378.906219	-736.328064	-552.246094	2.236641	1.114504	1.198473	43.050003	-42.0	30.750002
37996348.0	-398.925751	-789.062439	-619.140625	0.381679	3.984733	-1.450382	42.0	-43.350002	29.550001
38181304.0	-349.121063	-719.23822	-628.90625	-0.633588	1.977099	3.625954	43.050003	-42.300003	29.700001
38364544.0	-442.382782	-767.578064	-682.617126	0.717557	0.091603	3.19084	43.200001	-42.450001	30.300001
38547768.0	-439.941376	-690.429626	-587.890625	-2.801527	0.946565	1.251908	42.75	-42.150002	29.1
38733008.0	-395.996063	-658.203064	-580.078125	-0.458015	-0.282443	2.984733	42.450001	-41.400002	30.6
38916204.0	-482.421844	-733.886658	-611.816406	0.59542	-1.557252	3.755725	42.600002	-42.0	29.700001
39101272.0	-333.496063	-577.636719	-529.296875	0.977099	1.778626	4.145038	43.5	-41.400002	29.1
40048400.0	-375.488251	-728.515564	-648.92572	-1.618321	2.480916	1.59542	42.75	-42.450001	29.1
40257564.0	-398.437469	-643.554626	-526.367188	1.427481	1.740458	-0.725191	43.650002	-41.550003	30.450001
40438068.0	-407.714813	-839.843689	-655.761658	2.496183	1.022901	-2.557252	42.450001	-41.400002	29.550001
40619532.0	-468.749969	-805.664001	-791.015564	3.312977	0.709924	-3.458015	43.050003	-41.550003	28.950001
40803076.0	-403.320282	-657.714783	-509.277313	1.687023	3.152672	-3.175573	42.600002	-41.25	29.400002
40984244.0	-399.414032	-668.945251	-551.757813	0.48855	0.389313	0.763359	41.25	-41.400002	28.800001
41165860.0	-389.648407	-706.054626	-583.984375	1.412214	0.091603	-1.954198	42.0	-40.950001	29.85
41349228.0	-355.468719	-719.726501	-580.078125	-0.916031	1.992366	-3.587786	43.050003	-42.0	30.750002
41530780.0	-458.984344	-759.765564	-747.070251	0.763359	0.916031	0.954198	42.0	-41.400002	30.300001
41712360.0	-385.253876	-649.414001	-523.925781	0.732824	3.007634	-0.145038	42.600002	-41.550003	30.450001
42648808.0	-432.617157	-743.164001	-661.621033	-0.10687	2.10687	-0.320611	42.75	-41.400002	29.550001
42831992.0	-393.554657	-710.937439	-620.117188	2.870229	1.59542	-2.21374	41.850002	-41.550003	30.750002
43015052.0	-348.144501	-682.617126	-580.078125	0.435115	3.290076	-3.793893	43.950001	-41.700001	29.550001
43199660.0	-458.984344	-748.046814	-741.699158	0.656489	0.473282	-1.221374	42.75	-42.150002	30.6
43383052.0	-383.300751	-647.460876	-520.996094	2.778626	2.335878	-0.389313	42.75	-42.150002	29.1
43566248.0	-437.988251	-681.152283	-584.472656	0.992366	1.496183	3.984733	42.75	-41.400002	29.85
43751768.0	-356.445282	-656.73822	-515.136719	1.167939	-1.366412	0.70229	43.200001	-41.700001	29.85
43934936.0	-356.445282	-790.039001	-609.863281	2.0	0.427481	0.030534	41.700001	-41.700001	29.1
44118364.0	-416.503876	-716.796814	-664.55072	-0.343511	1.061069	-0.076336	42.300003	-41.25	29.700001
44303380.0	-415.527313	-749.999939	-673.339783	-0.152672	-0.114504	-1.137405	41.850002	-40.800003	29.400002
45244508.0	-453.613251	-725.097595	-627.441406	-0.656489	1.732824	1.89313	43.200001	-40.950001	29.1
45427508.0	-398.437469	-649.902283	-549.804688	-0.122137	-0.503817	4.38168	43.650002	-40.800003	30.150002
45612192.0	-442.382782	-732.421814	-618.652344	2.312977	0.053435	2.664122	43.5	-40.200001	29.550001
45795520.0	-353.027313	-642.089844	-535.644531	0.816794	-0.320611	-1.671756	42.600002	-42.300003	29.700001
45978588.0	-416.503876	-722.167908	-656.73822	-0.244275	3.587786	-0.48855	43.350002	-42.300003	29.400002
46163624.0	-423.339813	-723.632751	-664.55072	2.534351	1.961832	-5.78626	42.450001	-42.150002	28.050001
46346824.0	-471.679657	-744.140564	-697.753845	0.045802	-2.870229	1.412214	41.850002	-43.5	29.400002
46530224.0	-292.480469	-661.132751	-454.101532	-0.832061	1.427481	0.320611	41.550003	-43.050003	29.700001
46715104.0	-398.925751	-692.871033	-564.453125	1.381679	-0.923664	2.267176	42.75	-43.650002	30.300001
46897696.0	-343.749969	-749.999939	-612.304688	0.564885	1.633588	-2.053435	42.75	-40.950001	30.300001
47843152.0	-368.164032	-776.855408	-679.199158	2.10687	-0.015267	-0.847328	42.450001	-42.150002	29.1
48027652.0	-393.554657	-698.242126	-675.781189	0.374046	-0.938931	0.396947	42.450001	-42.450001	29.550001
48210308.0	-389.648407	-644.042908	-455.078094	2.328244	0.282443	0.984733	42.75	-42.0	30.150002
48392864.0	-458.496063	-656.249939	-546.386719	1.435115	1.305344	0.839695	40.950001	-43.350002	29.550001
48577252.0	-339.843719	-702.636658	-573.730469	-0.10687	-3.793893	3.251908	43.050003	-42.75	30.450001
48760056.0	-387.207001	-810.546814	-656.73822	0.709924	1.679389	-0.206107	43.350002	-41.550003	30.450001
48942728.0	-459.960907	-729.003845	-665.527283	-1.78626	1.923664	-0.076336	43.350002	-41.550003	30.150002
49127172.0	-407.714813	-691.89447	-579.101563	1.442748	1.068702	2.374046	43.200001	-41.700001	29.1
49309832.0	-472.167938	-724.121033	-603.027344	1.679389	0.274809	0.198473	43.650002	-42.300003	31.500002
49492644.0	-412.109344	-664.55072	-535.644531	1.824427	1.816794	-1.862595	41.850002	-42.0	31.200001
50448848.0	-369.140594	-750.48822	-632.324219	1.916031	1.450382	-0.78626	42.450001	-40.650002	30.300001
50631652.0	-452.148407	-768.066345	-674.316345	-0.068702	2.21374	-2.015267	43.950001	-41.700001	30.6
50816112.0	-400.390594	-707.031189	-595.703125	-1.679389	3.145038	-0.564885	42.75	-40.950001	30.300001
50998952.0	-473.144501	-726.074158	-616.210938	0.030534	1.083969	2.099237	43.200001	-42.900002	29.1
51182104.0	-340.820282	-660.64447	-584.960938	1.21374	0.519084	0.51145	42.300003	-42.300003	30.150002
51366460.0	-365.234344	-769.531189	-647.460876	1.656489	4.137404	0.961832	41.850002	-40.800003	30.450001
51549272.0	-501.464813	-718.749939	-704.101501	0.160305	-0.870229	2.78626	43.050003	-41.25	30.450001
51732052.0	-353.027313	-645.507751	-457.031219	-1.335878	1.0	1.061069	42.0	-42.150002	31.050001
51916944.0	-443.847626	-650.878845	-582.03125	2.21374	-0.717557	1.603053	42.450001	-41.700001	30.6
52099764.0	-397.460907	-781.73822	-674.804626	-0.312977	2.007634	1.549618	42.600002	-41.550003	30.450001
53047556.0	-434.082001	-694.824158	-583.007813	-1.885496	2.167939	1.977099	42.75	-41.400002	31.35
53232384.0	-426.269501	-685.546814	-599.609375	-1.0	0.21374	1.847328	42.600002	-42.0	30.150002
53415084.0	-435.546844	-710.449158	-543.945313	0.328244	0.076336	1.610687	43.200001	-41.400002	30.300001
53597600.0	-367.675751	-711.914001	-563.964844	2.419847	-0.839695	4.290076	43.5	-42.450001	30.6
53781820.0	-414.550751	-709.472595	-642.089844	-1.908397	2.137405	0.824427	40.350002	-41.550003	29.700001
53964384.0	-411.132782	-652.343689	-597.167969	-0.763359	4.022901	2.366412	43.350002	-42.75	30.150002
54147148.0	-425.781219	-688.476501	-646.972595	2.053435	-0.557252	2.748092	42.0	-42.150002	30.300001
54331632.0	-364.257782	-664.062439	-479.492157	-1.793893	3.320611	0.938931	42.300003	-42.0	30.150002
54514644.0	-460.937469	-659.179626	-583.984375	-1.435115	1.694656	0.473282	43.200001	-41.700001	31.35
54697452.0	-409.667938	-732.910095	-609.375	1.854962	1.465649	-1.603053	42.0	-42.450001	31.050001
55651588.0	-347.656219	-744.140564	-608.398438	3.954198	1.587786	1.496183	42.300003	-42.0	29.700001
55834628.0	-375.488251	-721.191345	-622.558594	-2.427481	3.770992	-3.450382	43.050003	-42.300003	30.450001
56017340.0	-436.523407	-738.281189	-653.320251	-0.312977	0.89313	0.061069	42.600002	-42.300003	30.450001
56202572.0	-433.105438	-648.437439	-524.414063	0.282443	1.801527	-2.290076	43.650002	-42.300003	29.700001
56385752.0	-408.203094	-628.90625	-542.480469	-1.885496	0.954198	-1.137405	41.700001	-41.400002	29.85
56568820.0	-416.015594	-732.910095	-588.867188	0.763359	1.977099	-1.312977	42.450001	-42.450001	29.85
56753636.0	-351.074188	-791.015564	-627.441406	0.51145	3.564885	-0.29771	43.200001	-42.450001	29.1
56936564.0	-422.363251	-773.437439	-698.242126	1.328244	-0.343511	1.954198	44.100002	-40.800003	28.950001
57119728.0	-376.953094	-743.652283	-628.417969	-0.847328	0.045802	2.083969	43.650002	-42.0	30.750002
57304560.0	-459.960907	-716.796814	-611.816406	-1.068702	2.725191	2.503817	43.5	-42.450001	29.85
58245168.0	-404.296844	-684.08197	-567.382813	-1.122137	0.061069	4.778626	41.850002	-42.75	30.150002
58427876.0	-433.105438	-704.589783	-602.050781	0.343511	0.145038	1.045802	41.700001	-41.400002	28.800001
58611864.0	-385.742157	-717.773376	-572.753906	0.725191	0.664122	0.534351	40.800003	-42.75	30.450001
58793432.0	-392.089813	-742.187439	-662.597595	-2.244275	0.061069	-1.648855	42.300003	-43.5	29.400002
58976340.0	-448.242157	-680.17572	-578.125	1.328244	0.557252	-0.351145	42.300003	-42.300003	30.750002
59161436.0	-458.496063	-709.472595	-659.667908	-0.442748	-1.236641	3.435115	43.350002	-41.550003	30.150002
59344288.0	-368.652313	-646.484314	-494.628876	-0.80916	-1.801527	4.450382	42.75	-40.950001	30.6
59527356.0	-441.406219	-667.480408	-592.773438	-0.854962	0.251908	1.19084	41.850002	-40.800003	30.750002
59712056.0	-359.374969	-652.83197	-562.988281	0.641221	1.320611	0.389313	44.25	-40.950001	30.300001
59894812.0	-347.656219	-763.671814	-625.976563	0.946565	3.137405	-2.480916	43.5	-40.950001	29.85
60844080.0	-375.488251	-688.964783	-572.265625	-1.59542	6.641222	-1.358779	42.75	-41.700001	30.6
61026948.0	-417.968719	-750.976501	-708.496033	2.648855	2.89313	-0.251908	42.300003	-41.550003	30.450001
61209696.0	-459.960907	-689.941345	-559.570313	3.083969	1.732824	-0.549618	43.5	-41.700001	30.300001
61394280.0	-388.183563	-686.035095	-567.382813	1.045802	1.80916	0.358779	42.600002	-42.75	30.150002
61576884.0	-357.421844	-711.42572	-593.261719	0.21374	1.977099	2.625954	42.75	-41.700001	29.85
61787140.0	-418.457001	-693.847595	-524.414063	-0.259542	1.740458	3.526718	42.75	-40.950001	30.300001
61967204.0	-407.714813	-720.703064	-590.820313	1.251908	-0.320611	0.022901	43.350002	-41.25	29.400002
62148476.0	-411.621063	-761.230408	-690.429626	0.40458	3.29771	0.793893	43.5	-42.900002	31.050001
62331960.0	-417.480438	-670.410095	-582.03125	-0.10687	1.099237	0.381679	42.600002	-41.550003	29.700001
62513228.0	-425.292938	-673.339783	-583.007813	3.259542	4.625954	-4.770992	43.200001	-41.400002	30.300001
63445924.0	-369.628876	-686.035095	-629.882813	-1.038168	2.480916	-0.328244	42.450001	-42.150002	29.1
63626952.0	-385.742157	-730.95697	-605.46875	-0.732824	-2.709924	3.847328	42.75	-41.700001	29.550001
63802320.0	-419.921844	-687.98822	-566.894531	-0.671756	1.259542	0.435115	43.050003	-41.550003	30.450001
63978176.0	-437.011688	-732.910095	-647.460876	0.21374	1.450382	-3.21374	42.450001	-42.150002	30.6
64156152.0	-511.230438	-777.343689	-653.808533	2.061069	-0.687023	-1.496183	41.700001	-41.700001	30.300001
64333188.0	-381.347626	-710.937439	-600.585938	1.343511	1.335878	0.343511	43.950001	-42.450001	30.300001
64510236.0	-430.664032	-716.308533	-637.695313	-1.21374	-0.221374	4.900764	43.950001	-42.450001	29.85
64689264.0	-390.136688	-644.531189	-502.441376	-0.496183	-1.862595	3.961832	42.0	-41.700001	30.300001
64866832.0	-477.539032	-681.152283	-578.613281	0.229008	0.427481	1.427481	43.050003	-41.550003	29.700001
65043888.0	-410.156219	-705.078064	-655.273376	-0.206107	0.374046	-0.603053	42.600002	-42.0	30.150002
66040312.0	-361.816376	-770.01947	-637.695313	0.832061	3.412214	-4.053435	43.200001	-41.700001	29.550001
66217268.0	-444.824188	-739.746033	-707.031189	2.244275	-1.167939	0.977099	43.350002	-42.0	30.450001
66394264.0	-467.773407	-678.710876	-540.527344	2.358779	-1.152672	2.687023	43.050003	-41.25	30.150002
66573040.0	-392.089813	-650.878845	-558.59375	-1.580153	0.038168	2.916031	43.200001	-42.450001	30.300001
66749784.0	-416.503876	-679.199158	-620.605469	-0.053435	-0.229008	1.908397	43.050003	-41.550003	30.450001
66926744.0	-430.664032	-685.058533	-571.777344	-1.175573	1.954198	1.580153	43.050003	-41.550003	30.450001
67105576.0	-431.640594	-779.785095	-646.484314	-1.091603	2.870229	-0.343511	43.050003	-41.550003	30.150002
67282640.0	-431.640594	-772.949158	-718.749939	-0.412214	2.847328	1.183206	42.600002	-41.550003	30.450001
67459600.0	-473.632782	-665.527283	-547.363281	1.091603	1.076336	-0.351145	43.050003	-42.300003	29.700001
67638608.0	-362.792938	-655.761658	-533.203125	-0.656489	4.137404	-2.206107	43.650002	-40.800003	30.150002
68555664.0	-421.386688	-674.316345	-566.40625	0.351145	2.587786	0.755725	43.350002	-41.25	31.200001
68733096.0	-354.003876	-719.726501	-611.816406	2.59542	1.625954	-3.251908	42.75	-40.950001	30.6
68912536.0	-467.773407	-687.98822	-656.249939	-1.564885	-1.366412	3.954198	42.75	-40.650002	29.85
69089688.0	-425.292938	-757.324158	-583.007813	1.328244	-0.160305	2.29771	42.300003	-43.050003	30.150002
69265624.0	-366.210907	-660.64447	-582.03125	-0.236641	1.442748	-1.946565	44.700001	-40.650002	29.85
69441360.0	-453.613251	-699.218689	-595.214844	-0.839695	0.832061	-1.419847	43.650002	-41.550003	31.200001
69614352.0	-362.304657	-659.179626	-550.78125	0.610687	0.877863	0.419847	43.350002	-41.550003	31.200001
69787880.0	-425.781219	-687.011658	-628.90625	-2.763359	-0.572519	2.862595	43.650002	-41.25	30.750002
69963152.0	-410.644501	-657.226501	-569.824219	-0.175573	2.236641	-0.740458	43.350002	-41.25	30.450001
70137136.0	-362.304657	-713.378845	-590.820313	0.687023	2.793893	4.229008	42.600002	-40.800003	30.750002
71054848.0	-409.667938	-735.351501	-602.050781	0.21374	2.503817	-3.694656	43.200001	-42.150002	31.050001
71228752.0	-467.285126	-729.492126	-691.406189	0.832061	-1.099237	0.259542	43.350002	-41.550003	30.450001
71402416.0	-493.164032	-670.898376	-583.007813	1.022901	0.877863	3.038168	41.700001	-42.150002	31.35
71578888.0	-415.527313	-729.492126	-676.26947	1.51145	-0.610687	1.465649	43.650002	-40.800003	30.150002
71752680.0	-468.261688	-707.51947	-639.648438	-1.198473	-0.412214	0.045802	43.650002	-40.350002	29.700001
71926504.0	-398.925751	-663.574158	-580.078125	2.839695	1.954198	-1.610687	43.650002	-40.800003	31.950001
72102016.0	-451.660126	-713.378845	-666.015564	1.206107	-2.656489	5.648855	44.400002	-42.300003	29.400002
72276160.0	-406.249969	-707.031189	-551.757813	4.221374	0.007634	2.251908	42.75	-42.150002	31.650002
72449936.0	-447.753876	-715.33197	-666.992126	2.694656	0.045802	-3.29771	43.350002	-42.0	29.700001
72625464.0	-421.386688	-649.414001	-522.460938	0.534351	2.206107	2.0	43.200001	-41.700001	31.050001
73548888.0	-440.917938	-726.562439	-672.851501	2.068702	0.969466	-1.068702	42.300003	-41.25	30.450001
73725968.0	-542.480469	-760.742126	-663.574158	2.29771	-1.129771	4.038168	43.350002	-41.550003	31.200001
73905760.0	-427.246063	-713.867126	-585.9375	0.618321	3.068702	-0.351145	43.050003	-42.75	31.500002
74082512.0	-383.789032	-683.593689	-562.988281	0.29771	4.503817	0.053435	43.950001	-42.900002	30.300001
74258680.0	-436.523407	-715.820251	-618.652344	0.389313	1.748092	-0.496183	43.650002	-42.0	30.450001
74437520.0	-510.253876	-713.867126	-611.328125	-1.244275	-1.603053	3.732824	43.950001	-40.950001	29.550001
74613688.0	-402.832001	-697.753845	-623.046875	0.70229	0.015267	-0.435115	43.050003	-42.300003	30.750002
74790424.0	-478.027313	-672.36322	-597.167969	-0.236641	0.206107	1.061069	43.650002	-41.25	30.150002
74968432.0	-354.492157	-670.898376	-524.902344	1.335878	-0.160305	-2.038168	44.850002	-40.800003	29.700001
75145040.0	-401.855438	-691.89447	-608.886719	2.610687	0.267176	-1.755725	44.25	-40.650002	30.300001
76130304.0	-512.695313	-696.289001	-574.707031	2.312977	0.0	3.671756	43.950001	-40.200001	31.35
76307088.0	-383.789032	-662.109314	-586.425781	-0.824427	1.412214	0.977099	43.050003	-40.350002	29.700001
76480024.0	-463.378876	-647.949158	-586.914063	-0.160305	1.908397	0.427481	42.0	-41.400002	31.050001
76652632.0	-400.878876	-686.523376	-570.800781	1.900763	1.19084	-2.740458	43.050003	-41.550003	30.150002
76826328.0	-453.124969	-696.777283	-648.437439	0.007634	-2.030534	3.839695	43.5	-42.150002	32.100002
76998400.0	-443.847626	-700.195251	-595.214844	0.725191	6.198473	-5.015267	44.25	-41.400002	29.85
77170192.0	-482.910126	-743.652283	-730.468689	-2.541985	0.580153	4.748092	43.350002	-41.25	30.750002
77343944.0	-456.054657	-687.98822	-584.960938	-0.931298	1.083969	0.160305	42.300003	-40.050003	30.450001
77515392.0	-421.874969	-737.792908	-654.296814	-0.648855	1.946565	1.175573	44.400002	-41.25	30.450001
77686896.0	-403.320282	-652.83197	-545.898438	0.267176	2.587786	-2.80916	44.700001	-40.950001	31.650002
78646424.0	-465.332001	-705.078064	-656.249939	-0.824427	0.122137	-0.015267	43.950001	-40.950001	30.6
78818112.0	-460.449188	-719.23822	-610.839844	0.358779	5.175572	0.763359	43.5	-42.150002	31.050001
78989728.0	-475.585907	-724.609314	-697.265564	-0.625954	0.274809	2.801527	42.600002	-40.800003	29.700001
79163328.0	-444.824188	-661.621033	-574.21875	-1.679389	2.931298	-0.900763	45.300003	-41.400002	30.6
79334560.0	-422.363251	-713.378845	-620.605469	0.877863	1.793893	0.496183	44.700001	-40.650002	29.85
79505488.0	-404.785126	-677.246033	-537.109375	0.160305	-0.656489	3.259542	44.100002	-40.800003	30.750002
79678240.0	-453.613251	-666.015564	-579.589844	1.480916	1.198473	1.198473	43.350002	-41.550003	30.150002
79850480.0	-397.949188	-696.289001	-535.644531	1.160305	2.78626	-1.091603	43.350002	-40.800003	30.450001
80024992.0	-381.835907	-676.26947	-569.824219	2.465649	-2.961832	2.320611	43.350002	-41.25	29.700001
80199264.0	-367.675751	-645.01947	-468.261688	0.458015	-1.358779	3.877863	43.200001	-40.650002	31.35
81143256.0	-388.671844	-619.628906	-524.902344	1.740458	2.755725	-0.580153	42.600002	-40.800003	29.400002
81315352.0	-425.781219	-660.64447	-546.386719	-1.328244	1.358779	2.320611	43.5	-40.650002	31.050001
81483704.0	-419.433563	-741.210876	-669.921814	-0.709924	2.908397	-1.59542	42.75	-40.950001	30.300001
81650736.0	-422.851532	-689.941345	-570.3125	2.175573	-0.59542	1.534351	43.950001	-41.400002	30.300001
81819576.0	-462.402313	-683.105408	-592.773438	2.671756	1.877863	-1.534351	43.5	-40.950001	31.050001
81986088.0	-405.761688	-773.92572	-625.488281	-0.030534	-0.160305	3.778626	43.5	-40.950001	31.050001
82152728.0	-369.628876	-676.26947	-539.550781	0.946565	0.954198	-1.320611	43.650002	-42.0	30.450001
82320888.0	-459.472626	-682.128845	-622.070313	-0.045802	1.473282	1.641221	44.100002	-40.800003	30.750002
82487344.0	-399.414032	-761.718689	-612.304688	-1.358779	-0.687023	0.244275	44.700001	-40.950001	31.050001
82682840.0	-457.031219	-699.218689	-577.148438	0.251908	3.061069	1.21374	43.200001	-40.950001	29.550001
83644648.0	-398.437469	-670.410095	-554.199219	0.175573	-0.900763	-0.015267	43.200001	-40.650002	30.6
83811744.0	-458.007782	-657.714783	-578.125	0.022901	2.59542	0.877863	43.050003	-40.800003	30.150002
83981904.0	-393.066376	-669.433533	-605.46875	-0.435115	1.099237	5.59542	44.25	-41.400002	30.300001
84149848.0	-488.281219	-712.890564	-652.83197	5.221374	2.114504	-1.70229	43.650002	-40.800003	30.750002
84317616.0	-370.605438	-689.941345	-584.960938	-1.358779	0.274809	6.679389	43.200001	-41.700001	29.85
84486920.0	-470.214813	-697.265564	-563.476563	-0.274809	5.358778	-0.725191	43.650002	-41.25	30.150002
84654096.0	-487.304657	-768.066345	-714.843689	-1.412214	1.778626	5.099236	43.5	-40.950001	29.85
84821296.0	-375.976532	-658.203064	-559.082031	0.671756	4.0	-0.832061	44.100002	-41.25	31.200001
84990696.0	-437.011688	-676.26947	-558.59375	2.183206	1.053435	4.480916	44.25	-40.950001	29.550001
85159528.0	-353.027313	-714.843689	-637.695313	-0.022901	1.19084	-0.793893	43.5	-39.900002	30.6
86143920.0	-469.238251	-705.566345	-634.765625	2.931298	2.282443	0.961832	43.650002	-40.800003	27.900002
86314168.0	-413.085907	-731.933533	-618.652344	2.068702	-1.099237	3.526718	43.5	-41.400002	29.550001
86482536.0	-397.949188	-657.226501	-506.347626	2.526718	3.580153	-1.114504	42.300003	-41.25	29.700001
86650984.0	-445.800751	-762.695251	-714.843689	-1.694656	-0.877863	2.473282	43.350002	-40.050003	27.900002
86821504.0	-474.121063	-685.546814	-584.960938	-0.877863	4.305344	-1.816794	41.700001	-40.650002	29.550001
86989760.0	-400.390594	-698.730408	-571.777344	1.450382	-1.648855	2.603053	43.350002	-40.800003	29.700001
87158088.0	-417.968719	-722.656189	-626.953125	1.557252	2.290076	-0.022901	42.450001	-41.400002	29.550001
87328360.0	-508.300751	-727.05072	-620.605469	0.19084	1.709924	-0.167939	43.5	-41.400002	29.85
87498088.0	-461.914032	-773.437439	-681.640564	1.427481	0.137405	1.78626	44.100002	-40.350002	30.450001
87669600.0	-386.718719	-699.70697	-535.644531	-0.801527	3.427481	-3.038168	43.050003	-39.600002	29.700001
88643248.0	-506.835907	-754.39447	-754.882751	0.083969	0.19084	-0.946565	42.450001	-40.200001	28.500002
88813824.0	-461.425751	-720.214783	-574.707031	-0.763359	3.381679	0.793893	44.400002	-40.800003	28.650002
88986408.0	-404.785126	-726.074158	-602.539063	0.198473	0.045802	1.618321	42.75	-40.950001	30.6
89157520.0	-353.027313	-659.667908	-556.640625	1.473282	0.236641	3.21374	42.75	-40.650002	29.85
89328456.0	-478.515594	-719.726501	-631.835938	0.114504	3.045802	0.022901	43.350002	-39.300003	30.750002
89502216.0	-345.703094	-746.093689	-610.351563	-2.244275	3.801527	1.862595	44.25	-39.900002	29.550001
89673240.0	-476.074188	-691.406189	-630.859375	2.839695	2.900763	-1.687023	42.300003	-40.050003	28.950001
89844320.0	-380.859344	-690.917908	-551.269531	0.70229	-1.015267	0.129771	43.200001	-39.900002	28.800001
90017344.0	-403.808563	-679.199158	-515.136719	3.80916	-0.061069	0.152672	42.0	-40.950001	29.85
90188184.0	-335.937469	-665.039001	-578.613281	1.442748	-0.465649	3.847328	43.950001	-39.150002	28.800001
91144672.0	-436.035126	-709.472595	-655.761658	2.59542	-0.526718	-0.938931	42.600002	-39.300003	28.950001
91318208.0	-468.749969	-669.433533	-584.960938	0.801527	3.465649	-1.610687	43.350002	-40.050003	30.150002
91491016.0	-364.746063	-746.093689	-635.742188	0.480916	1.381679	0.396947	43.050003	-40.050003	30.150002
91664808.0	-388.183563	-672.851501	-577.148438	0.198473	-1.251908	-1.671756	42.75	-39.900002	30.300001
91839736.0	-339.355438	-781.249939	-616.210938	0.312977	1.946565	-0.40458	42.75	-40.650002	29.1
92013104.0	-393.066376	-704.101501	-573.730469	-2.992366	-0.40458	0.312977	42.450001	-41.700001	29.1
92187016.0	-392.578094	-666.992126	-531.25	-2.251908	3.0	-0.244275	41.850002	-41.550003	29.400002
92362608.0	-436.523407	-765.136658	-652.343689	0.427481	-0.938931	-2.633588	43.5	-40.650002	30.300001
92535872.0	-415.039032	-651.855408	-549.316406	-0.450382	2.129771	-0.045802	43.050003	-39.600002	29.400002
92710800.0	-443.847626	-671.386658	-628.417969	-0.603053	-1.274809	1.152672	42.600002	-42.75	30.450001
93650808.0	-387.695282	-636.71875	-526.367188	0.51145	2.541985	-0.358779	43.050003	-41.25	30.450001
93826864.0	-335.449188	-693.847595	-536.621094	-0.687023	2.641221	-1.824427	43.350002	-40.050003	30.450001
94002936.0	-436.523407	-698.242126	-607.910156	-1.465649	-2.015267	0.389313	44.700001	-42.150002	31.050001
94180912.0	-442.871063	-658.691345	-559.082031	-1.801527	-0.793893	0.961832	41.850002	-40.800003	29.700001
94356544.0	-427.246063	-734.86322	-683.105408	0.229008	2.473282	-0.282443	42.450001	-39.450001	31.35
94533104.0	-502.441376	-786.132751	-669.433533	0.694656	0.519084	0.534351	42.300003	-40.800003	30.750002
94711000.0	-380.859344	-712.890564	-593.261719	2.122137	0.21374	-2.778626	43.050003	-40.800003	30.450001
94886984.0	-475.585907	-657.714783	-657.714783	-1.068702	-0.748092	-0.206107	43.950001	-40.650002	31.050001
95063096.0	-483.398407	-743.164001	-652.83197	1.664122	1.78626	-0.251908	43.650002	-40.800003	31.200001
95241736.0	-439.453094	-756.347595	-695.80072	-2.534351	1.015267	1.19084	42.75	-40.950001	32.100002
96235576.0	-403.808563	-649.902283	-585.9375	-0.717557	2.534351	-0.938931	42.75	-40.950001	31.650002
96411768.0	-471.679657	-737.792908	-665.527283	-0.603053	-0.419847	2.832061	43.200001	-41.400002	30.6
96589712.0	-382.324188	-655.761658	-485.351532	0.328244	-0.312977	2.587786	44.25	-40.950001	30.6
96765880.0	-378.906219	-654.296814	-532.226563	0.610687	4.167939	-0.236641	43.5	-40.650002	30.300001
96942352.0	-446.289032	-762.20697	-646.972595	2.503817	2.328244	-1.022901	43.950001	-41.400002	29.85
97120632.0	-479.003876	-724.609314	-637.207031	0.725191	-0.358779	-0.900763	43.950001	-41.400002	30.6
97297680.0	-376.464813	-695.312439	-589.355469	0.946565	1.419847	0.564885	43.350002	-42.300003	31.950001
97474656.0	-441.894501	-708.007751	-652.83197	0.10687	4.076336	1.061069	42.600002	-40.350002	30.450001
97653328.0	-418.457001	-678.710876	-557.617188	0.832061	-0.603053	3.122137	44.25	-39.900002	30.300001
97830280.0	-439.453094	-669.433533	-553.222656	1.244275	2.305344	0.603053	42.75	-41.400002	29.85
98745912.0	-486.816376	-710.937439	-591.308594	-1.442748	-0.534351	0.931298	42.450001	-40.650002	29.85
98922360.0	-378.906219	-726.562439	-648.437439	1.236641	-0.580153	2.045802	42.300003	-41.25	30.750002
99099072.0	-477.050751	-712.402283	-607.910156	1.076336	0.183206	1.061069	44.100002	-40.350002	31.200001
99277464.0	-397.949188	-691.89447	-561.035156	2.083969	1.442748	-0.961832	43.350002	-41.25	30.150002
99453840.0	-372.070282	-701.660095	-581.054688	-1.21374	5.61832	-2.022901	43.350002	-40.350002	30.450001
99630904.0	-436.523407	-726.074158	-686.523376	1.770992	-1.145038	0.160305	43.5	-40.650002	31.35
99811368.0	-493.652313	-690.429626	-598.144531	0.549618	0.366412	0.687023	44.850002	-41.550003	30.750002
99989888.0	-408.203094	-661.621033	-540.527344	1.206107	1.282443	0.564885	44.25	-40.200001	29.550001
100168416.0	-473.632782	-740.722595	-650.390564	1.78626	-0.083969	-0.656489	44.400002	-41.550003	30.750002
100348896.0	-526.367188	-693.847595	-681.152283	-0.427481	2.954198	-0.10687	44.700001	-40.950001	30.300001
101338392.0	-397.949188	-749.023376	-617.1875	0.412214	3.10687	1.564885	43.200001	-40.650002	32.100002
101517312.0	-483.398407	-746.58197	-636.230469	1.770992	1.458015	0.923664	44.100002	-41.25	31.950001
101698600.0	-403.808563	-685.546814	-567.382813	-0.358779	2.832061	-0.610687	42.75	-39.150002	29.85
101877392.0	-363.281219	-666.015564	-581.542969	-1.450382	5.679389	0.381679	44.100002	-40.800003	30.150002
102056504.0	-425.781219	-697.265564	-606.445313	-0.007634	0.503817	1.030534	42.600002	-40.800003	29.700001
102237272.0	-518.554688	-705.566345	-588.867188	2.083969	-0.839695	4.206107	43.650002	-40.800003	30.750002
102416536.0	-391.601532	-710.937439	-592.773438	2.244275	-0.458015	-1.587786	44.100002	-42.300003	30.750002
102595704.0	-450.195282	-712.890564	-628.417969	-0.030534	1.839695	1.709924	44.700001	-41.400002	30.6
102777152.0	-442.382782	-657.714783	-625.488281	1.40458	0.832061	4.198473	42.75	-39.900002	30.6
102956464.0	-429.687469	-731.933533	-566.894531	0.694656	2.938931	0.862595	43.950001	-40.950001	31.650002
103948208.0	-482.910126	-727.05072	-666.503845	-0.435115	1.0	1.526718	43.5	-40.650002	30.300001
104128968.0	-413.085907	-705.566345	-570.3125	1.007634	2.053435	-1.923664	44.400002	-40.050003	30.450001
104308472.0	-390.624969	-711.914001	-598.632813	-1.167939	-0.755725	1.29771	43.5	-40.200001	29.550001
104513072.0	-489.257782	-678.222595	-568.359375	0.206107	1.045802	2.206107	44.400002	-41.25	30.150002
104691096.0	-436.523407	-729.492126	-646.972595	1.412214	2.763359	-0.137405	43.200001	-40.200001	31.650002
104869176.0	-436.523407	-662.109314	-575.195313	-1.282443	3.694656	1.78626	43.950001	-40.650002	29.85
105049712.0	-439.941376	-672.851501	-623.535156	1.076336	2.557252	4.900764	44.100002	-40.350002	30.750002
105228032.0	-472.656219	-754.882751	-663.085876	1.335878	1.763359	-1.458015	43.650002	-41.550003	29.700001
105406352.0	-476.562469	-746.093689	-673.339783	0.717557	2.717557	0.687023	43.650002	-41.550003	30.150002
105586504.0	-370.117157	-758.789001	-617.1875	0.946565	-0.374046	3.839695	43.350002	-40.800003	30.750002
106551992.0	-422.363251	-755.859314	-653.808533	-0.129771	0.954198	-3.175573	43.650002	-40.800003	29.400002
106733888.0	-502.929657	-713.378845	-696.289001	1.503817	2.160305	2.29771	43.950001	-41.400002	30.300001
106915008.0	-368.164032	-590.820313	-438.476532	-1.48855	-0.984733	0.648855	42.75	-41.400002	29.1
107097184.0	-451.660126	-679.687439	-585.9375	0.519084	-1.480916	5.51145	43.050003	-39.600002	30.450001
107281040.0	-392.578094	-770.996033	-666.503845	0.167939	1.114504	-0.534351	44.25	-39.900002	31.050001
107463416.0	-437.011688	-775.878845	-655.761658	1.374046	2.458015	0.480916	42.600002	-39.300003	29.400002
107645976.0	-478.027313	-708.007751	-692.382751	0.633588	-1.89313	1.519084	44.100002	-40.050003	30.750002
107830840.0	-396.484344	-609.863281	-475.585907	-0.458015	0.312977	-0.473282	43.200001	-39.900002	29.550001
108012360.0	-486.328094	-631.347656	-581.054688	-0.59542	-0.534351	2.305344	43.950001	-39.900002	30.300001
108194464.0	-404.785126	-706.542908	-583.007813	0.450382	1.122137	-0.29771	44.100002	-40.050003	30.150002
109147432.0	-425.292938	-724.609314	-575.195313	0.847328	2.694656	0.129771	43.5	-40.650002	29.85
109329528.0	-337.402313	-662.109314	-547.363281	-0.977099	1.954198	-1.679389	43.5	-40.200001	30.6
109511344.0	-475.585907	-749.023376	-716.308533	-0.381679	2.801527	0.068702	44.25	-39.900002	31.650002
109695288.0	-418.457001	-713.378845	-587.890625	-0.061069	2.725191	1.183206	45.0	-40.200001	30.6
109877616.0	-508.789032	-748.535095	-669.433533	0.167939	0.664122	4.038168	43.650002	-39.600002	30.750002
110060000.0	-386.230438	-712.890564	-550.292969	0.938931	2.160305	0.068702	43.650002	-40.350002	30.300001
110244144.0	-450.683563	-759.765564	-608.398438	1.770992	0.412214	2.778626	44.400002	-40.350002	30.150002
110426896.0	-353.515594	-679.687439	-605.46875	-2.206107	0.763359	0.099237	44.400002	-40.800003	30.450001
110610032.0	-398.925751	-724.609314	-592.285156	0.465649	2.916031	-1.29771	43.200001	-40.200001	31.35
110795368.0	-439.941376	-684.570251	-606.445313	0.801527	3.557252	-1.580153	43.050003	-41.25	31.200001
111743816.0	-467.773407	-687.499939	-674.804626	-0.396947	-0.068702	1.412214	44.700001	-39.900002	29.85
111926456.0	-410.644501	-644.531189	-479.492157	1.450382	0.51145	0.48855	44.100002	-40.050003	30.150002
112111096.0	-521.972656	-702.636658	-614.746094	1.603053	2.48855	0.839695	43.050003	-39.600002	30.150002
112293784.0	-362.304657	-675.292908	-550.78125	2.687023	1.030534	-0.572519	43.350002	-40.350002	30.450001
112476544.0	-386.718719	-730.468689	-586.914063	2.541985	1.045802	-4.442748	44.25	-40.650002	29.85
112661000.0	-338.378876	-656.249939	-562.011719	1.007634	4.175572	0.007634	43.5	-40.200001	30.300001
112843856.0	-477.539032	-749.511658	-724.609314	0.984733	0.954198	-1.10687	43.950001	-39.900002	31.35
113026600.0	-420.410126	-684.08197	-526.367188	0.229008	3.908397	-1.198473	44.25	-38.25	29.85
113211096.0	-509.765594	-689.453064	-640.625	0.061069	-1.526718	-1.358779	43.200001	-40.650002	30.300001
113393832.0	-423.828094	-711.914001	-551.269531	1.259542	-2.076336	3.259542	41.100002	-42.0	30.450001
114346512.0	-334.960907	-796.874939	-543.457031	0.603053	-2.229008	6.396946	42.300003	-41.550003	30.150002
114531664.0	-366.210907	-759.765564	-592.773438	0.030534	-3.381679	6.450382	41.700001	-42.900002	29.85
114714328.0	-323.730438	-752.929626	-596.679688	-1.877863	-2.137405	8.480916	42.300003	-41.550003	30.150002
114896784.0	-382.324188	-735.351501	-644.531189	0.854962	-0.748092	0.847328	42.75	-40.800003	29.700001
115081344.0	-441.406219	-620.117188	-624.511719	1.473282	0.366412	-1.137405	42.450001	-39.450001	29.85
115264176.0	-449.707001	-701.660095	-644.531189	3.274809	-0.366412	0.343511	43.950001	-39.450001	29.85
115447472.0	-508.300751	-652.343689	-564.453125	0.839695	4.908397	-3.267176	42.75	-40.650002	30.300001
115632144.0	-361.816376	-627.929688	-541.992188	0.396947	4.480916	-0.534351	42.75	-40.200001	30.6
115815080.0	-335.937469	-728.027283	-553.222656	-0.381679	1.19084	1.045802	42.450001	-40.950001	29.550001
115998336.0	-286.621094	-734.86322	-579.101563	1.442748	0.755725	1.633588	44.100002	-39.600002	29.700001
116945816.0	-393.066376	-642.089844	-550.292969	2.152672	3.076336	-1.045802	43.200001	-37.950001	30.6
117129024.0	-426.269501	-749.023376	-673.828064	2.236641	1.290076	-0.320611	44.400002	-39.300003	30.150002
117314472.0	-404.296844	-694.335876	-602.539063	-0.671756	3.099237	-0.580153	43.050003	-40.050003	29.400002
117497712.0	-414.550751	-710.449158	-661.132751	0.427481	0.557252	5.458015	43.650002	-39.300003	31.200001
117681024.0	-354.980438	-675.292908	-467.773407	-1.572519	-0.557252	1.358779	43.5	-40.200001	29.85
117865984.0	-495.117157	-713.867126	-619.140625	-0.503817	-1.366412	5.78626	43.650002	-38.850002	29.400002
118049120.0	-378.417938	-638.183594	-555.664063	0.572519	-1.625954	1.48855	43.050003	-38.100002	30.750002
118232496.0	-386.230438	-712.402283	-603.027344	1.679389	1.679389	-0.251908	43.200001	-36.75	30.6
118417416.0	-406.738251	-689.453064	-578.125	-0.152672	4.40458	-4.045802	43.350002	-39.300003	29.400002
118600608.0	-492.675751	-734.86322	-712.890564	-1.19084	1.80916	-0.931298	43.200001	-39.450001	29.85
119548816.0	-422.851532	-672.36322	-571.289063	1.030534	1.900763	0.343511	42.600002	-37.800003	29.400002
119733616.0	-488.769501	-675.781189	-632.324219	3.519084	-1.580153	3.847328	44.400002	-38.100002	30.450001
119917000.0	-409.179657	-706.054626	-553.710938	0.312977	-1.633588	0.954198	45.0	-39.450001	31.35
120100032.0	-467.773407	-733.886658	-614.257813	1.839695	-2.030534	0.671756	44.25	-37.950001	30.300001
120285320.0	-382.324188	-625.0	-553.222656	-0.816794	2.068702	-0.89313	44.25	-37.950001	29.85
120468368.0	-436.523407	-695.312439	-644.531189	0.015267	3.351145	-1.0	43.950001	-39.450001	29.1
120651704.0	-428.222626	-687.499939	-598.632813	-1.770992	5.40458	-3.053435	43.950001	-38.700001	29.85
120836528.0	-398.925751	-658.203064	-594.726563	1.198473	0.587786	1.282443	42.600002	-38.850002	29.700001
121019552.0	-357.421844	-651.855408	-488.281219	-0.137405	1.549618	0.167939	42.450001	-38.25	30.300001
121202592.0	-426.757782	-624.511719	-550.292969	-0.656489	1.358779	-2.351145	42.300003	-40.050003	29.700001
122142608.0	-441.406219	-753.417908	-711.42572	0.328244	-1.916031	7.885496	43.350002	-38.850002	30.450001
122325944.0	-457.031219	-656.73822	-546.386719	3.503817	2.290076	-2.022901	42.75	-40.650002	29.1
122509128.0	-403.808563	-826.171814	-641.113281	4.40458	6.122138	-4.335878	42.600002	-38.850002	30.450001
122694064.0	-523.925781	-712.890564	-691.89447	3.022901	-2.900763	4.412214	43.650002	-39.600002	28.200001
122877544.0	-525.390625	-700.683533	-501.464813	1.343511	-2.21374	-0.938931	43.050003	-39.600002	28.950001
123061200.0	-287.597656	-639.648438	-583.984375	-0.503817	-1.21374	0.251908	43.050003	-39.300003	28.950001
123247032.0	-373.535126	-665.039001	-461.914032	-1.259542	1.534351	-4.236641	41.850002	-40.350002	29.400002
123430536.0	-399.414032	-732.910095	-574.21875	0.236641	4.992366	-4.129771	43.200001	-39.900002	29.85
123612024.0	-326.660126	-791.503845	-665.039001	-1.236641	1.503817	0.366412	42.450001	-40.200001	29.550001
123792952.0	-431.640594	-682.617126	-630.371094	3.671756	4.419847	-8.106871	42.300003	-41.25	29.700001
124746392.0	-396.972626	-710.449158	-626.464844	-1.198473	1.328244	0.51145	42.600002	-39.600002	30.750002
124929616.0	-375.976532	-607.910156	-458.496063	-0.374046	0.641221	1.343511	43.200001	-39.450001	29.85
125114680.0	-502.441376	-717.285095	-554.199219	0.022901	-5.068702	3.244275	42.300003	-39.300003	30.150002
125298280.0	-389.160126	-728.515564	-688.476501	-0.351145	0.580153	2.862595	43.200001	-39.900002	29.1
125481520.0	-401.855438	-604.003906	-487.304657	-0.656489	-3.022901	2.70229	42.600002	-39.600002	30.450001
125666536.0	-401.855438	-711.914001	-506.347626	-0.083969	2.900763	-3.114504	44.25	-39.450001	29.550001
125849880.0	-292.96875	-691.89447	-589.355469	-0.419847	-4.343512	1.526718	43.050003	-40.350002	30.150002
126332176.0	-432.128876	-652.83197	-378.906219	2.038168	1.977099	-1.526718	42.300003	-41.25	30.150002
126776136.0	-457.519501	-645.01947	-619.140625	-1.236641	-6.961832	8.335877	43.350002	-40.350002	30.450001
127269688.0	-477.539032	-752.929626	-486.816376	0.755725	0.10687	0.946565	43.950001	-40.650002	28.800001
128484416.0	-444.335907	-726.562439	-548.828125	-2.358779	1.450382	-0.496183	42.75	-40.200001	30.300001
128913400.0	-423.339813	-719.726501	-580.566406	-1.038168	4.320611	0.274809	42.75	-39.900002	30.6
129404288.0	-359.374969	-798.828064	-707.51947	-0.694656	1.587786	-0.335878	42.450001	-39.900002	30.300001
129845280.0	-402.832001	-699.218689	-567.382813	5.175572	0.916031	-1.557252	43.5	-40.650002	30.6
130287760.0	-491.699188	-741.210876	-562.988281	-0.534351	-2.152672	2.435115	41.850002	-41.25	31.200001
130773480.0	-395.996063	-746.58197	-696.289001	-0.007634	1.419847	-1.900763	43.950001	-42.900002	31.650002
131190704.0	-425.292938	-699.218689	-520.507813	-0.580153	-2.458015	0.526718	42.600002	-42.75	31.200001
131685448.0	-447.753876	-732.421814	-624.511719	1.076336	2.740458	-3.877863	44.100002	-41.550003	31.200001
132100856.0	-314.453125	-673.339783	-586.425781	-0.618321	0.832061	0.687023	41.850002	-42.0	31.200001
132537944.0	-366.210907	-756.835876	-604.003906	1.389313	0.519084	-0.793893	43.5	-40.950001	31.35
133891272.0	-410.644501	-720.703064	-508.789032	0.48855	3.366412	-2.40458	43.200001	-41.400002	31.650002
134072672.0	-416.015594	-666.503845	-574.707031	0.541985	1.381679	-3.412214	44.400002	-41.25	30.450001
134254144.0	-460.449188	-758.789001	-685.058533	-2.320611	-0.946565	0.335878	43.650002	-40.350002	31.200001
134437376.0	-445.312469	-772.460876	-589.355469	-0.274809	4.358778	-4.160306	44.100002	-41.550003	31.200001
134619136.0	-381.835907	-631.347656	-541.992188	-0.145038	0.099237	-0.076336	43.350002	-42.0	31.500002
134800704.0	-437.499969	-760.253845	-656.73822	0.175573	-1.740458	0.183206	43.350002	-42.0	32.550003
134984064.0	-443.847626	-775.878845	-693.359314	0.770992	1.931298	-3.198473	42.75	-41.400002	31.35
135165648.0	-307.617188	-677.246033	-501.464813	-2.564885	-0.877863	-0.458015	43.950001	-39.900002	32.100002
135347552.0	-475.585907	-761.718689	-612.792969	1.076336	-1.129771	1.801527	43.950001	-42.150002	31.35
135531024.0	-369.628876	-718.749939	-581.542969	1.687023	2.183206	-1.793893	42.75	-42.900002	32.850002
136452240.0	-414.550751	-659.179626	-554.199219	-0.671756	-2.068702	1.381679	42.75	-42.450001	32.850002
136633744.0	-495.605438	-712.890564	-609.375	-1.541985	-1.19084	2.458015	43.650002	-42.75	32.550003
136817792.0	-394.042938	-678.710876	-577.148438	4.450382	1.053435	-3.534351	44.400002	-42.0	32.550003
136999312.0	-381.835907	-745.117126	-664.55072	-1.900763	-0.389313	2.10687	43.950001	-42.450001	33.150002
137180736.0	-414.550751	-688.964783	-532.226563	-1.435115	-1.274809	2.969466	44.100002	-42.300003	34.050003
137363952.0	-508.789032	-782.226501	-597.65625	-0.954198	2.748092	-7.717557	43.5	-43.350002	32.850002
137545664.0	-438.476532	-752.441345	-677.246033	1.961832	-0.687023	0.564885	44.25	-41.700001	31.650002
137727168.0	-338.867157	-648.437439	-581.054688	-0.961832	-3.083969	4.091603	44.100002	-43.5	32.550003
137910464.0	-512.207031	-774.414001	-598.632813	2.007634	1.206107	-1.015267	43.350002	-42.300003	33.0
138091952.0	-381.347626	-804.687439	-619.628906	2.206107	1.717557	-2.519084	44.700001	-42.900002	32.400002
139048864.0	-408.691376	-794.433533	-732.910095	1.839695	3.618321	-2.122137	43.950001	-42.900002	33.900002
139232416.0	-395.019501	-745.117126	-599.609375	0.648855	0.083969	-1.358779	44.100002	-42.75	33.75
139413968.0	-477.050751	-711.42572	-634.277344	-4.763359	0.419847	0.900763	44.25	-43.350002	34.650002
139595488.0	-474.121063	-738.281189	-589.355469	1.068702	2.694656	-2.70229	45.600002	-43.050003	33.0
139779376.0	-321.289032	-685.546814	-568.847656	-0.358779	7.038168	-5.137404	44.400002	-43.050003	33.75
139961264.0	-382.812469	-705.078064	-564.941406	-2.755725	0.305344	-0.21374	43.650002	-42.300003	34.050003
140142784.0	-426.269501	-626.464844	-562.988281	0.030534	-2.221374	-0.290076	43.5	-42.900002	33.900002
140326112.0	-370.117157	-678.710876	-585.9375	-0.778626	-1.603053	5.625954	43.950001	-42.150002	35.400002
140507712.0	-434.082001	-731.445251	-677.734314	-1.854962	-1.671756	0.335878	43.5	-42.900002	33.600002
140689536.0	-353.027313	-636.71875	-562.5	-1.312977	1.0	1.160305	44.100002	-43.800003	34.5
141644336.0	-525.878906	-799.804626	-627.929688	-0.992366	1.839695	-3.007634	44.850002	-43.050003	35.100002
141826016.0	-552.734375	-937.98822	-863.281189	0.236641	0.557252	-1.839695	44.100002	-43.5	34.5
142007632.0	-190.429672	-471.679657	-391.601532	-1.221374	1.763359	-0.580153	45.150002	-42.0	34.050003
142191296.0	-360.839813	-547.851563	-585.449219	-0.007634	-1.977099	0.061069	44.25	-43.650002	34.950001
142373088.0	-316.894531	-583.496094	-604.003906	-3.709924	-2.320611	1.366412	45.150002	-42.300003	34.050003
142554784.0	-196.777328	-405.273407	-461.914032	-4.419847	3.351145	0.099237	43.5	-43.650002	34.200001
142738720.0	-367.187469	-580.078125	-632.8125	2.083969	-3.679389	-1.320611	44.400002	-42.75	35.550003
142920624.0	-361.816376	-635.253906	-637.207031	-4.053435	-1.229008	0.19084	44.25	-44.100002	35.700001
143102352.0	-216.79686	-423.339813	-484.374969	-2.954198	1.732824	-1.625954	44.100002	-42.75	35.850002
143285808.0	-354.003876	-561.523438	-603.515625	0.885496	-0.389313	-3.633588	44.850002	-45.75	35.850002
144243328.0	-496.093719	-750.976501	-605.957031	-2.770992	-4.526718	-3.038168	44.850002	-44.550003	35.850002
144426640.0	-580.078125	-933.593689	-903.320251	0.732824	-4.877862	0.748092	44.25	-45.600002	38.25
144608432.0	-451.171844	-838.867126	-791.503845	-0.419847	-0.557252	-5.015267	44.850002	-45.0	34.5
144789872.0	-460.449188	-796.874939	-644.531189	-4.038168	-0.885496	-2.740458	44.700001	-45.150002	35.700001
144973168.0	-478.515594	-740.234314	-811.523376	-5.503817	-2.374046	-1.572519	44.700001	-45.600002	36.450001
145154672.0	-447.753876	-791.503845	-791.015564	-2.427481	-4.045802	-1.282443	45.150002	-44.550003	35.850002
145336448.0	-388.671844	-654.296814	-665.039001	-7.755725	1.557252	-1.908397	44.850002	-45.0	37.650002
145520336.0	-289.0625	-563.964844	-645.01947	-4.816794	0.641221	-4.129771	43.650002	-44.25	38.100002
145701888.0	-390.136688	-634.277344	-698.730408	-0.854962	-3.022901	-4.557252	43.950001	-45.900002	37.950001
145883440.0	-356.445282	-687.011658	-672.851501	3.603053	-6.923664	-3.801527	44.700001	-46.650002	38.25
146845248.0	-538.574219	-849.609314	-627.441406	-0.458015	-2.603053	-4.366412	45.0	-47.100002	40.050003
147027184.0	-482.910126	-707.51947	-614.746094	-3.022901	-1.419847	-4.717557	44.25	-48.600002	41.100002
147209104.0	-450.195282	-781.249939	-699.218689	1.801527	-7.007634	-2.618321	44.850002	-47.700001	39.450001
147392688.0	-465.332001	-722.656189	-504.394501	-1.229008	-4.419847	-2.977099	44.100002	-49.200001	39.150002
147574768.0	-430.175751	-736.816345	-554.199219	-3.030534	-4.435114	-4.931298	44.100002	-48.450001	40.950001
147756704.0	-472.656219	-750.48822	-660.156189	-0.870229	-5.40458	-2.89313	44.25	-49.350002	42.600002
147937968.0	-402.343719	-635.253906	-448.730438	1.519084	-4.671756	-1.732824	43.350002	-50.700001	40.950001
148114272.0	-400.390594	-676.26947	-582.03125	-1.732824	-4.694656	-5.931298	43.200001	-49.350002	41.100002
148290096.0	-380.859344	-655.273376	-516.113281	-3.099237	-0.48855	-6.885496	43.650002	-49.650002	42.75
148468112.0	-523.925781	-830.566345	-810.058533	-1.267176	-5.870229	-3.770992	42.0	-52.050003	43.650002
149445872.0	-391.601532	-591.796875	-421.386688	-5.038168	-3.175573	-3.709924	41.700001	-52.050003	44.100002
149621728.0	-296.875	-681.640564	-511.230438	-2.519084	-4.549618	-3.374046	42.300003	-52.650002	43.950001
149799024.0	-451.660126	-750.48822	-647.949158	-1.442748	-6.755725	-5.10687	41.700001	-53.250004	43.650002
149975232.0	-447.265594	-683.593689	-527.832031	-6.145038	-1.167939	-6.900764	41.700001	-54.300003	45.150002
150150832.0	-345.703094	-720.703064	-484.374969	-3.320611	-0.282443	-4.160306	40.950001	-54.000004	45.150002
150328400.0	-309.570313	-625.976563	-473.632782	-5.664122	-4.48855	-5.358778	40.650002	-54.750004	45.900002
150503872.0	-335.937469	-614.746094	-530.761719	-2.175573	-2.465649	-4.458015	40.950001	-55.950001	45.150002
150680160.0	-294.921875	-535.15625	-538.574219	-3.534351	-0.908397	-5.496183	40.650002	-55.950001	45.150002
150857600.0	-339.843719	-648.437439	-640.625	-0.793893	-4.122138	-1.725191	41.100002	-55.350002	45.75
151033344.0	-446.777313	-845.703064	-751.464783	-3.824427	-1.59542	-3.572519	39.300003	-57.300003	45.300003
151951408.0	-358.398407	-605.957031	-619.628906	-1.78626	-1.19084	-4.900764	39.900002	-56.700001	45.450001
152151280.0	-300.78125	-452.148407	-475.585907	-4.08397	-2.717557	-2.603053	37.5	-55.350002	45.75
152325616.0	-332.519501	-624.511719	-631.347656	-1.954198	1.137405	-2.763359	38.400002	-57.450001	46.650002
152499760.0	-475.097626	-893.554626	-760.253845	-1.671756	-3.70229	-2.48855	37.950001	-56.700001	46.650002
152676016.0	-357.421844	-702.148376	-601.5625	-3.114504	-2.038168	-2.748092	38.700001	-57.750004	46.950001
152850160.0	-402.343719	-651.855408	-520.507813	-2.427481	-1.824427	-1.183206	38.550003	-58.050003	47.100002
153026128.0	-441.406219	-655.761658	-638.671875	-1.687023	-1.206107	-0.160305	37.950001	-57.750004	46.950001
153200288.0	-444.335907	-702.636658	-703.61322	-1.435115	-2.335878	-3.549618	37.950001	-57.450001	48.0
153374288.0	-505.371063	-931.640564	-848.14447	-2.603053	-0.129771	-2.305344	38.25	-57.600002	46.800003
153550256.0	-471.679657	-848.632751	-629.394531	0.061069	-2.977099	-1.519084	37.050003	-58.350002	47.100002
154540976.0	-440.917938	-831.054626	-652.343689	-0.580153	0.664122	-0.381679	35.850002	-58.500004	47.400002
154716496.0	-477.539032	-671.386658	-590.820313	0.053435	-2.877863	2.145038	37.050003	-59.100002	46.050003
154893888.0	-298.828125	-655.273376	-591.796875	-1.244275	1.045802	-4.152672	37.200001	-57.750004	46.650002
155069216.0	-353.027313	-699.70697	-579.101563	-1.221374	0.89313	-0.78626	37.050003	-59.550003	47.100002
155245056.0	-441.894501	-574.21875	-591.308594	0.0	-2.984733	-0.877863	36.900002	-58.950001	47.400002
155423040.0	-391.601532	-787.597595	-600.585938	0.229008	-0.977099	-0.145038	37.5	-58.800003	46.800003
155598592.0	-394.042938	-632.324219	-485.839813	-0.862595	0.793893	-1.206107	37.050003	-59.850002	47.550003
155773920.0	-458.984344	-765.136658	-740.722595	-0.770992	-2.145038	2.541985	37.5	-58.050003	47.100002
155951776.0	-318.847656	-718.261658	-533.203125	-0.717557	-0.129771	-3.183206	36.0	-58.350002	47.100002
156127216.0	-369.140594	-620.117188	-548.339844	-1.70229	1.229008	0.358779	36.0	-59.100002	46.5
157045696.0	-346.191376	-573.242188	-492.187469	-1.099237	-1.236641	-2.267176	35.400002	-59.400002	47.400002
157222736.0	-542.480469	-898.437439	-774.414001	-1.801527	-0.366412	-0.877863	35.850002	-59.400002	46.200001
157398304.0	-293.945313	-621.582031	-524.414063	-1.282443	1.251908	-3.725191	36.150002	-59.700001	47.400002
157573952.0	-289.0625	-529.296875	-528.320313	3.328244	-1.137405	-0.519084	35.400002	-60.450001	47.400002
157751296.0	-553.222656	-873.535095	-762.695251	-1.824427	-0.870229	-0.580153	37.050003	-59.550003	47.850002
157927504.0	-219.726547	-563.964844	-437.011688	-0.687023	-0.21374	0.419847	35.25	-60.300003	48.900002
158106240.0	-540.039063	-901.855408	-799.804626	1.442748	-1.267176	-0.366412	35.25	-59.550003	48.300003
158287680.0	-376.464813	-598.144531	-564.453125	0.19084	-3.549618	-1.129771	34.950001	-60.300003	47.850002
158466064.0	-450.195282	-767.089783	-639.648438	-1.290076	1.19084	-0.29771	34.5	-61.500004	46.800003
158644336.0	-498.535126	-681.152283	-639.160156	-2.343511	-1.954198	-2.175573	35.25	-61.500004	47.100002
159635968.0	-301.269531	-555.175781	-539.0625	0.954198	0.160305	-0.351145	33.900002	-61.200001	48.450001
159814192.0	-504.394501	-819.824158	-674.804626	-1.0	-1.641221	1.618321	33.450001	-60.300003	48.600002
159992576.0	-386.230438	-669.433533	-587.890625	0.946565	-2.473282	-4.022901	33.0	-61.500004	47.550003
160172576.0	-359.863251	-662.597595	-526.855469	0.175573	-0.641221	-2.572519	32.850002	-61.200001	47.700001
160350848.0	-405.273407	-613.769531	-570.800781	2.145038	-1.083969	1.977099	33.0	-62.250004	48.300003
160529008.0	-381.347626	-766.601501	-578.125	-0.961832	-0.832061	2.908397	34.5	-62.250004	46.800003
160708256.0	-466.796844	-690.429626	-692.871033	0.053435	-2.59542	0.778626	33.450001	-61.050003	48.300003
160882144.0	-318.359375	-749.511658	-612.304688	0.763359	0.549618	-3.206107	32.700001	-62.250004	46.5
161057040.0	-353.515594	-707.51947	-560.546875	-0.435115	0.312977	-2.099237	32.550003	-62.700001	47.700001
161233856.0	-442.871063	-617.675781	-583.984375	-0.244275	0.732824	0.770992	33.300003	-61.950001	48.750004
162151168.0	-403.320282	-697.265564	-613.28125	0.89313	2.916031	0.557252	33.450001	-63.300003	47.850002
162326144.0	-537.109375	-873.535095	-750.48822	-1.152672	1.885496	-1.541985	34.200001	-62.250004	47.100002
162502624.0	-253.906235	-619.140625	-504.882782	1.083969	1.167939	3.129771	31.950001	-63.000004	48.600002
162677328.0	-348.144501	-607.910156	-571.289063	0.748092	-0.664122	0.114504	31.950001	-62.550003	48.900002
162852064.0	-506.347626	-823.242126	-687.011658	-3.40458	1.503817	0.557252	31.500002	-61.050003	48.600002
163028928.0	-199.707016	-600.585938	-429.199188	-0.977099	-1.083969	1.847328	33.450001	-64.050003	48.300003
163203648.0	-490.722626	-835.937439	-766.601501	-2.687023	1.48855	-2.480916	32.850002	-62.400002	48.450001
163380160.0	-448.242157	-717.773376	-597.65625	0.793893	-3.358779	0.679389	31.35	-61.950001	48.0
163554832.0	-282.226563	-628.417969	-541.992188	-1.198473	3.480916	-0.59542	32.100002	-62.700001	47.700001
163729888.0	-421.386688	-753.417908	-650.390564	-1.839695	0.664122	-0.450382	32.550003	-61.650002	47.700001
164653968.0	-375.488251	-653.320251	-560.546875	0.580153	1.519084	-1.419847	31.500002	-60.600002	47.550003
164829248.0	-298.828125	-515.625	-522.949219	1.480916	0.862595	-0.175573	31.500002	-62.250004	48.900002
165004064.0	-613.769531	-941.406189	-828.61322	-0.954198	0.427481	-1.48855	31.950001	-62.550003	47.850002
165181136.0	-203.124985	-555.175781	-407.226532	-1.839695	0.450382	0.854962	31.800001	-62.700001	47.400002
165356064.0	-458.007782	-813.476501	-750.48822	-0.053435	1.916031	-2.816794	31.200001	-63.000004	47.100002
165531312.0	-489.257782	-826.171814	-643.554626	3.480916	0.076336	-0.419847	30.6	-62.700001	47.700001
165707952.0	-300.292969	-584.472656	-524.414063	1.549618	2.114504	-1.480916	32.100002	-62.700001	46.950001
165883392.0	-580.078125	-887.695251	-777.343689	-0.442748	-2.320611	-0.21374	30.900002	-63.000004	47.550003
166058288.0	-403.320282	-684.08197	-536.132813	-3.091603	0.152672	0.381679	31.200001	-63.300003	46.800003
166235376.0	-392.578094	-678.222595	-623.046875	-0.641221	-1.015267	-5.687023	29.550001	-63.150002	47.400002
167153088.0	-319.824219	-643.554626	-547.851563	-2.183206	-1.740458	-3.198473	29.700001	-62.550003	47.100002
167327696.0	-510.253876	-815.429626	-676.26947	-1.282443	-2.175573	-3.122137	28.800001	-62.700001	47.700001
167505024.0	-371.582001	-531.25	-506.835907	1.717557	-4.129771	-2.122137	29.400002	-63.750004	47.850002
167679696.0	-417.480438	-816.89447	-612.304688	-1.465649	-1.641221	-1.80916	30.6	-63.150002	47.400002
167854464.0	-461.914032	-647.460876	-579.589844	-1.236641	-2.740458	-1.198473	28.650002	-63.750004	47.550003
168030912.0	-295.410156	-714.843689	-608.886719	-0.465649	0.022901	-2.412214	29.700001	-63.000004	46.800003
168207248.0	-406.249969	-777.83197	-618.652344	-1.977099	-4.465649	-1.412214	27.750002	-64.350006	46.200001
168385152.0	-343.749969	-569.335938	-547.851563	-4.435114	-2.709924	-3.664122	28.800001	-63.900002	47.700001
168564880.0	-451.660126	-872.558533	-656.73822	-1.305344	-2.587786	-0.908397	27.150002	-64.800003	46.050003
168742816.0	-294.433594	-656.73822	-573.730469	1.587786	1.030534	-6.89313	26.400002	-64.5	45.300003
169738592.0	-375.488251	-807.128845	-576.171875	-2.343511	-6.335878	2.70229	25.650002	-63.750004	45.75
169918368.0	-363.769501	-662.597595	-600.097656	1.656489	1.343511	-8.351145	24.900002	-64.5	47.100002
170096736.0	-555.664063	-902.83197	-770.507751	-4.40458	-8.442748	1.366412	25.35	-65.25	45.75
170274720.0	-248.535141	-554.199219	-397.949188	0.038168	-2.839695	-4.694656	24.150002	-66.450005	46.050003
170455536.0	-454.101532	-888.183533	-731.933533	-2.083969	-5.801527	1.580153	24.750002	-65.400002	45.900002
170633072.0	-293.457031	-622.558594	-551.269531	-0.183206	0.923664	-6.343512	24.750002	-65.850006	45.450001
170810784.0	-502.441376	-775.390564	-697.265564	-0.717557	-7.145038	-1.206107	24.0	-65.400002	44.850002
170990048.0	-133.789063	-612.792969	-413.085907	-3.648855	-4.435114	-3.633588	24.450001	-64.350006	46.200001
171168560.0	-491.699188	-744.628845	-719.23822	-2.206107	-0.793893	-5.816794	23.550001	-66.0	45.75
171349216.0	-376.953094	-810.546814	-603.515625	-4.648855	-6.61832	2.29771	21.6	-65.700005	44.25
172343232.0	-249.023422	-599.121094	-440.429657	-1.687023	-2.427481	-8.854961	20.550001	-64.5	43.950001
172521888.0	-485.351532	-898.437439	-749.023376	-4.419847	-7.007634	-1.48855	21.6	-64.800003	43.950001
172700880.0	-269.53125	-588.378906	-501.464813	-0.10687	-3.259542	-7.832061	19.800001	-65.700005	43.200001
172881264.0	-522.460938	-828.61322	-718.749939	-4.91603	-3.862595	-4.08397	20.1	-65.25	43.5
173090240.0	-401.855438	-701.171814	-556.152344	-2.480916	-3.396947	-3.343511	20.400002	-65.400002	41.850002
173265840.0	-294.921875	-589.84375	-546.386719	0.175573	-0.549618	-7.274809	19.5	-66.0	42.0
173442800.0	-554.199219	-931.640564	-798.828064	-4.29771	-5.587786	1.274809	19.5	-65.25	42.450001
173622000.0	-208.98436	-629.882813	-414.550751	-3.984733	-2.709924	-8.770992	18.300001	-65.25	42.75
173798832.0	-481.933563	-906.249939	-811.035095	-2.442748	-4.671756	-4.91603	18.300001	-66.75	41.700001
173975648.0	-408.203094	-755.859314	-602.539063	2.48855	-0.900763	-4.778626	16.650002	-65.100006	41.100002
174945888.0	-523.4375	-787.597595	-721.191345	-0.015267	-2.732824	-0.343511	17.1	-65.850006	40.5
175123200.0	-215.820297	-711.42572	-504.882782	-0.80916	-2.244275	1.122137	16.5	-65.700005	40.650002
175299904.0	-433.593719	-716.796814	-626.953125	2.152672	1.183206	-7.412214	15.6	-65.400002	40.5
175478944.0	-319.824219	-645.996033	-529.296875	-1.10687	-2.793893	0.328244	16.35	-65.850006	40.050003
175657008.0	-369.140594	-607.910156	-542.480469	1.610687	0.587786	-1.725191	16.800001	-66.0	39.450001
175832800.0	-571.289063	-854.003845	-767.578064	0.083969	-2.030534	0.633588	15.150001	-65.100006	39.300003
176009968.0	-167.968735	-664.55072	-437.988251	-1.572519	-3.503817	2.045802	15.750001	-65.700005	40.950001
176185104.0	-415.527313	-698.242126	-604.980469	-0.519084	-2.480916	-1.763359	15.000001	-63.750004	39.450001
176360384.0	-561.523438	-940.917908	-820.80072	-1.236641	0.335878	-0.335878	16.650002	-64.350006	40.050003
176537888.0	-274.902344	-646.484314	-561.035156	1.587786	-1.351145	-1.526718	15.150001	-65.100006	39.300003
177455968.0	-390.624969	-658.691345	-530.273438	-0.40458	-0.015267	1.656489	15.900001	-66.600006	38.25
177630592.0	-362.792938	-526.367188	-489.746063	1.251908	1.832061	-3.442748	14.400001	-65.850006	38.550003
177806464.0	-427.246063	-806.152283	-604.980469	-2.732824	1.78626	1.389313	14.85	-65.100006	38.550003
177980688.0	-426.757782	-673.339783	-528.320313	-2.725191	3.221374	-1.221374	15.750001	-63.300003	40.650002
178154464.0	-494.140594	-754.39447	-704.101501	1.076336	0.748092	-2.48855	15.750001	-64.800003	39.150002
178330624.0	-374.999969	-691.406189	-550.78125	0.083969	0.0	-0.618321	16.050001	-64.5	38.850002
178504992.0	-282.226563	-613.769531	-528.808594	-0.160305	0.687023	3.435115	13.950001	-64.800003	39.150002
178679712.0	-353.027313	-593.75	-597.167969	3.916031	0.885496	-4.061069	16.35	-65.100006	39.300003
178855824.0	-601.5625	-951.171814	-841.308533	-0.282443	0.007634	2.778626	15.450001	-65.25	39.450001
179030352.0	-238.769516	-568.847656	-392.578094	-0.503817	-2.183206	2.129771	16.050001	-64.050003	38.100002
179945744.0	-499.999969	-644.042908	-602.539063	1.152672	0.053435	0.221374	14.85	-64.650002	39.0
180122992.0	-310.546875	-636.71875	-543.945313	3.007634	2.412214	-1.458015	15.000001	-65.25	37.350002
180297664.0	-350.585907	-755.371033	-574.21875	-1.022901	1.648855	-0.129771	15.750001	-64.5	39.150002
180472160.0	-376.953094	-633.300781	-571.289063	3.618321	-1.572519	2.51145	15.000001	-65.25	39.150002
180648512.0	-553.710938	-818.847595	-704.101501	2.419847	1.854962	2.480916	15.150001	-65.400002	38.550003
180823424.0	-153.808594	-607.421875	-429.687469	0.122137	-1.19084	2.900763	14.400001	-66.600006	38.550003
180997616.0	-386.230438	-639.648438	-557.128906	3.977099	1.358779	-0.007634	14.85	-63.900002	39.0
181173312.0	-545.410156	-919.433533	-786.132751	-0.229008	2.061069	-1.78626	16.050001	-64.5	38.850002
181347376.0	-371.093719	-701.660095	-565.429688	-1.312977	0.572519	2.664122	14.85	-64.350006	38.25
181521616.0	-308.59375	-634.765625	-569.335938	3.129771	0.030534	-2.152672	14.700001	-64.800003	39.150002
182447872.0	-450.195282	-805.664001	-625.976563	0.343511	4.335878	-0.755725	14.400001	-65.850006	39.75
182621968.0	-272.460938	-654.785095	-544.921875	0.061069	0.145038	0.854962	15.000001	-63.300003	38.100002
182798816.0	-462.402313	-657.226501	-625.976563	4.160306	-0.70229	0.755725	15.900001	-65.850006	39.0
182974096.0	-553.222656	-821.777283	-731.445251	0.687023	0.389313	3.618321	13.650001	-65.850006	38.25
183149408.0	-265.136719	-628.90625	-500.976532	0.580153	2.427481	0.374046	15.450001	-63.300003	39.450001
183326320.0	-537.109375	-911.621033	-813.476501	1.305344	1.610687	-2.061069	14.400001	-65.100006	38.550003
183501536.0	-394.531219	-641.113281	-554.199219	-1.442748	0.229008	2.625954	14.85	-65.850006	37.950001
183676320.0	-281.25	-557.128906	-546.875	0.48855	1.312977	-2.335878	14.700001	-64.800003	39.450001
183851712.0	-572.265625	-945.80072	-820.312439	1.374046	3.664122	-3.351145	17.1	-64.650002	39.300003
184024576.0	-440.429657	-733.398376	-614.746094	0.679389	0.160305	1.656489	15.000001	-66.0	39.450001
184948704.0	-304.199219	-553.222656	-528.320313	3.396947	3.038168	-1.358779	16.050001	-65.700005	39.450001
185123616.0	-608.886719	-924.316345	-802.246033	1.89313	0.305344	0.519084	15.750001	-64.5	39.150002
185296512.0	-429.199188	-723.632751	-587.890625	-0.648855	-1.381679	3.038168	15.750001	-65.25	38.850002
185468832.0	-432.617157	-637.695313	-602.539063	2.572519	1.671756	-0.366412	14.400001	-64.350006	39.75
185643472.0	-446.777313	-742.187439	-586.914063	3.992366	2.587786	-0.740458	15.750001	-63.300003	39.900002
185815936.0	-137.207031	-586.914063	-419.433563	1.152672	1.053435	5.480916	15.450001	-65.25	39.150002
185988448.0	-326.660126	-636.71875	-491.210907	-0.877863	1.78626	1.427481	14.250001	-65.700005	39.150002
186162560.0	-516.601563	-916.503845	-811.523376	1.122137	4.458015	-1.458015	15.750001	-64.800003	40.200001
186333968.0	-476.074188	-787.109314	-624.511719	-2.053435	2.435115	3.984733	16.35	-65.100006	40.5
186505792.0	-498.535126	-719.23822	-668.45697	-2.396947	-1.366412	2.740458	15.750001	-64.5	39.450001
187450896.0	-253.417953	-570.3125	-418.945282	0.259542	0.061069	3.587786	15.750001	-65.25	39.900002
187624976.0	-444.335907	-732.910095	-657.226501	1.0	6.0	-1.312977	16.35	-65.400002	39.0
187797168.0	-462.890594	-820.312439	-587.890625	-1.793893	1.580153	3.137405	15.750001	-66.0	38.850002
187971328.0	-509.277313	-685.058533	-644.531189	1.480916	-0.541985	4.427481	16.650002	-65.100006	39.300003
188144400.0	-504.882782	-759.277283	-716.308533	4.740458	3.832061	-2.320611	14.85	-66.150002	40.800003
188317536.0	-424.804657	-768.066345	-626.953125	-1.244275	-0.343511	2.198473	15.150001	-63.900002	39.0
188492896.0	-283.691406	-634.277344	-537.109375	0.122137	0.167939	3.59542	15.900001	-65.400002	38.550003
188665680.0	-282.226563	-530.761719	-508.789032	1.320611	3.40458	-0.137405	15.750001	-64.800003	39.900002
188838720.0	-560.058594	-839.843689	-702.148376	6.10687	2.19084	-2.557252	15.450001	-65.700005	39.150002
189013120.0	-427.246063	-781.249939	-702.148376	0.778626	-0.648855	-0.679389	15.900001	-65.850006	40.050003
189950416.0	-487.792938	-874.511658	-798.339783	-0.381679	3.21374	1.610687	15.150001	-64.650002	39.0
190123088.0	-400.390594	-735.351501	-718.749939	3.564885	1.458015	0.068702	15.450001	-64.5	40.650002
190297664.0	-442.382782	-773.437439	-738.281189	-2.19084	-0.70229	0.083969	15.150001	-64.650002	39.300003
190469488.0	-431.640594	-565.917969	-581.054688	-1.312977	3.48855	0.015267	15.450001	-65.25	39.150002
190641248.0	-408.691376	-699.70697	-647.460876	-1.870229	0.068702	1.870229	15.750001	-65.25	40.200001
190814336.0	-425.781219	-609.375	-602.050781	-0.847328	1.358779	-2.122137	15.750001	-65.25	38.850002
190985920.0	-357.910126	-623.046875	-529.296875	1.549618	-2.244275	1.389313	14.400001	-65.850006	39.0
191157088.0	-254.882797	-604.003906	-458.496063	2.854962	-1.816794	1.458015	16.650002	-64.650002	39.300003
191330688.0	-253.417953	-579.101563	-425.292938	2.740458	0.51145	-1.030534	15.000001	-64.5	40.200001
191502064.0	-401.855438	-754.882751	-616.210938	0.801527	3.40458	-2.526718	16.050001	-64.050003	39.900002
192450240.0	-361.816376	-635.253906	-490.234344	0.381679	-1.641221	3.923664	16.35	-63.900002	39.300003
192621872.0	-407.226532	-587.402344	-437.499969	1.854962	-0.21374	-1.572519	15.900001	-64.650002	39.300003
192793104.0	-421.874969	-597.167969	-444.335907	2.633588	-1.992366	1.854962	15.750001	-65.25	39.450001
192966544.0	-395.019501	-612.792969	-453.613251	2.793893	-4.564886	2.526718	17.1	-64.350006	39.0
193137632.0	-324.707001	-581.542969	-557.128906	2.40458	1.526718	-1.557252	15.750001	-65.25	39.150002
193308720.0	-416.015594	-887.695251	-813.476501	-2.099237	-0.083969	3.549618	16.5	-63.000004	39.900002
193482240.0	-503.906219	-871.58197	-845.703064	-4.954198	6.366412	-0.748092	16.35	-66.600006	40.050003
193654256.0	-538.574219	-894.531189	-864.257751	2.022901	2.183206	-1.305344	16.050001	-64.800003	40.650002
193853536.0	-556.640625	-944.824158	-852.05072	-0.778626	3.045802	-0.114504	16.050001	-63.750004	39.900002
194022736.0	-384.277313	-640.625	-499.511688	4.374046	-1.916031	1.801527	15.750001	-65.700005	38.850002
194949648.0	-532.226563	-787.109314	-634.277344	4.473282	-0.580153	-1.496183	16.35	-65.400002	39.0
195122000.0	-474.121063	-808.105408	-718.749939	-1.763359	-1.877863	3.137405	15.450001	-66.0	39.900002
195291968.0	-272.460938	-593.75	-591.796875	-3.19084	4.549618	-0.59542	17.700001	-65.850006	39.0
195461968.0	-459.960907	-702.636658	-741.210876	-3.137405	-0.167939	-1.618321	15.750001	-64.5	39.900002
195634240.0	-459.472626	-774.902283	-650.390564	0.366412	0.175573	1.534351	15.150001	-64.650002	39.75
195804544.0	-268.066406	-712.890564	-440.429657	5.19084	5.206107	-5.274809	16.050001	-64.800003	39.900002
195975664.0	-440.917938	-771.972595	-537.597656	4.396946	0.740458	2.48855	15.450001	-64.800003	39.150002
196149760.0	-459.960907	-754.882751	-558.59375	5.687023	3.114504	-3.0	15.450001	-64.800003	40.950001
196323344.0	-525.878906	-833.007751	-687.011658	4.419847	0.908397	-0.755725	15.900001	-65.400002	40.800003
196496544.0	-503.417938	-877.929626	-686.035095	0.068702	3.068702	0.290076	18.0	-65.25	39.150002
197449680.0	-395.996063	-630.859375	-587.890625	-1.320611	1.992366	5.603054	17.400002	-65.850006	39.300003
197622704.0	-388.671844	-556.152344	-564.453125	-0.801527	6.244275	1.412214	17.550001	-65.25	40.650002
197796336.0	-386.718719	-646.972595	-615.234375	-2.946565	2.083969	3.679389	16.650002	-65.400002	41.100002
197972800.0	-394.531219	-585.449219	-550.292969	-0.007634	6.732824	2.473282	17.550001	-64.800003	39.900002
198146432.0	-368.652313	-655.761658	-606.933594	-1.633588	2.389313	5.48855	17.550001	-65.25	41.400002
198319808.0	-435.546844	-627.441406	-598.144531	0.80916	5.08397	2.221374	16.650002	-65.850006	40.5
198495344.0	-391.113251	-628.417969	-596.679688	-0.763359	2.221374	6.778626	18.300001	-66.450005	40.950001
198670080.0	-418.945282	-606.445313	-586.914063	-0.374046	7.641222	3.267176	18.150002	-66.150002	41.100002
198844416.0	-382.812469	-617.1875	-585.9375	0.442748	5.671756	2.664122	17.25	-64.5	40.950001
199022576.0	-412.109344	-602.539063	-569.335938	8.083969	-0.030534	7.091603	19.5	-65.25	42.450001
199946272.0	-355.957001	-639.648438	-591.308594	5.961832	1.618321	4.801527	18.900002	-65.100006	41.850002
200122912.0	-372.070282	-627.441406	-524.902344	7.412214	2.763359	2.465649	19.650002	-65.850006	42.300003
200301088.0	-421.386688	-570.3125	-452.148407	3.083969	1.78626	6.129771	18.75	-66.0	42.75
200477824.0	-443.359344	-599.121094	-466.796844	3.038168	6.38168	-1.335878	19.800001	-66.0	42.75
200654560.0	-448.730438	-594.726563	-466.796844	-2.732824	5.320611	4.076336	19.200001	-64.350006	42.300003
200834048.0	-399.414032	-639.160156	-514.648438	-0.587786	9.267176	-0.51145	19.950001	-64.350006	41.550003
201010800.0	-501.464813	-871.58197	-744.628845	2.70229	4.91603	4.068702	19.950001	-65.850006	42.900002
201187584.0	-551.269531	-946.777283	-817.871033	2.351145	-0.137405	3.0	20.85	-64.800003	42.450001
201366192.0	-423.828094	-759.277283	-649.902283	6.175572	5.0	-0.648855	21.300001	-64.800003	43.200001
201543312.0	-273.4375	-626.464844	-521.972656	-0.427481	3.687023	2.793893	22.5	-66.600006	43.650002
202539360.0	-337.890594	-614.746094	-613.28125	2.251908	2.664122	6.022901	21.450001	-66.150002	44.400002
202716240.0	-296.386719	-606.445313	-620.117188	3.396947	2.534351	6.366412	21.300001	-64.800003	44.25
202893168.0	-434.082001	-717.773376	-687.499939	9.152672	5.175572	-0.091603	22.35	-65.700005	44.25
203072144.0	-527.832031	-779.296814	-643.554626	5.419847	2.267176	5.305344	23.1	-66.450005	44.25
203249952.0	-456.542938	-678.222595	-509.277313	5.167939	7.389313	-1.977099	23.1	-64.5	44.25
203427712.0	-340.820282	-654.785095	-452.636688	-3.343511	7.824428	2.038168	23.85	-66.75	44.550003
203607296.0	-446.289032	-653.808533	-605.46875	-4.946565	7.610687	1.442748	23.25	-65.100006	45.150002
203785056.0	-541.015625	-838.867126	-802.734314	1.442748	6.221374	1.748092	23.550001	-64.5	45.0
203962320.0	-538.574219	-883.30072	-873.535095	3.312977	0.725191	7.343512	23.85	-65.700005	45.300003
204141408.0	-368.652313	-684.570251	-622.070313	0.0	4.610687	3.21374	26.1	-65.700005	45.300003
205138240.0	-428.222626	-582.03125	-594.726563	1.870229	1.221374	5.412214	24.0	-65.400002	44.850002
205315840.0	-448.242157	-779.296814	-722.167908	7.412214	3.129771	0.091603	26.250002	-64.650002	45.450001
205495024.0	-554.6875	-820.312439	-656.249939	3.160305	2.755725	2.603053	24.750002	-66.600006	46.200001
205672432.0	-430.664032	-695.312439	-489.257782	4.847328	3.030534	-0.572519	24.900002	-66.75	46.050003
205849824.0	-351.074188	-676.26947	-435.546844	-1.80916	3.221374	2.374046	25.800001	-65.100006	46.200001
206029536.0	-497.558563	-764.160095	-647.460876	-4.198473	5.824428	6.496183	24.900002	-64.800003	45.0
206207392.0	-414.062469	-643.554626	-657.714783	-0.916031	3.061069	1.320611	25.500002	-65.100006	44.400002
206385136.0	-336.914032	-570.3125	-624.511719	1.908397	-2.007634	3.839695	25.200001	-65.100006	46.650002
206565136.0	-435.058563	-717.773376	-681.640564	5.183206	2.396947	4.099236	26.1	-66.75	46.050003
206743104.0	-543.945313	-815.429626	-642.089844	-1.137405	3.938931	2.931298	26.250002	-65.400002	46.650002
207737872.0	-466.796844	-847.656189	-659.667908	0.618321	4.305344	-0.267176	26.400002	-65.700005	47.550003
207917328.0	-565.917969	-994.628845	-843.749939	3.244275	-4.320611	5.030534	26.550001	-66.150002	46.650002
208095120.0	-435.546844	-741.699158	-641.113281	4.549618	3.259542	2.152672	28.200001	-65.25	46.800003
208273456.0	-256.835938	-639.160156	-490.234344	1.274809	0.824427	1.206107	27.150002	-65.700005	46.050003
208453824.0	-437.499969	-617.675781	-582.519531	-2.389313	1.59542	6.419847	27.450001	-65.25	47.550003
208631904.0	-387.695282	-644.531189	-588.867188	0.389313	4.80916	-1.068702	28.050001	-64.650002	46.650002
208810032.0	-387.207001	-645.507751	-599.121094	4.816794	-0.328244	2.396947	27.450001	-65.25	46.800003
208989904.0	-505.371063	-863.281189	-780.273376	5.816794	1.015267	3.358779	27.450001	-64.5	46.5
209169184.0	-455.566376	-774.414001	-555.175781	2.854962	5.08397	0.51145	26.85	-65.25	46.5
209348576.0	-321.777313	-644.531189	-438.964813	2.870229	2.473282	2.389313	28.950001	-64.800003	45.75
210346672.0	-396.972626	-776.367126	-684.08197	4.748092	0.335878	2.099237	28.200001	-65.25	46.5
210525936.0	-399.414032	-562.011719	-475.097626	2.549618	2.290076	4.832061	28.050001	-64.650002	46.950001
210705728.0	-428.710907	-604.980469	-441.406219	-1.229008	6.564886	-2.274809	28.950001	-64.050003	46.800003
210887440.0	-412.597626	-777.343689	-613.28125	1.396947	3.519084	2.671756	28.050001	-63.600002	46.650002
211067296.0	-582.03125	-920.410095	-828.124939	5.167939	-0.778626	3.358779	28.950001	-63.750004	46.800003
211247232.0	-304.6875	-672.851501	-541.992188	1.816794	4.450382	-0.480916	28.050001	-64.350006	47.700001
211429168.0	-402.832001	-663.085876	-579.589844	-0.442748	1.274809	5.480916	27.450001	-64.050003	47.850002
211609088.0	-414.062469	-547.363281	-584.472656	6.290076	0.015267	0.755725	30.300001	-65.400002	45.450001
211789520.0	-496.093719	-893.066345	-747.558533	5.030534	3.51145	3.396947	28.950001	-63.750004	47.550003
211972032.0	-366.210907	-669.433533	-445.800751	-0.625954	-0.229008	6.625954	30.900002	-64.050003	47.100002
212946176.0	-324.707001	-580.566406	-593.75	4.824428	0.900763	3.381679	28.950001	-64.5	47.100002
213129584.0	-526.367188	-770.507751	-551.757813	-0.923664	9.664123	-0.870229	30.450001	-63.300003	47.850002
213310384.0	-361.328094	-686.035095	-510.253876	9.198473	0.900763	2.603053	30.300001	-63.150002	47.400002
213491168.0	-386.718719	-640.136719	-475.097626	6.984733	1.068702	1.007634	30.300001	-63.900002	46.950001
213673808.0	-440.429657	-821.289001	-647.949158	1.29771	5.824428	2.29771	31.200001	-62.250004	47.550003
213854928.0	-611.816406	-922.851501	-861.816345	-3.335878	8.580153	-0.206107	31.35	-63.150002	47.700001
214035776.0	-446.289032	-859.86322	-846.191345	-4.625954	7.030534	-0.022901	31.950001	-63.750004	47.100002
214218448.0	-565.917969	-804.687439	-775.878845	-3.290076	6.320611	1.053435	31.050001	-63.600002	47.400002
214399184.0	-314.453125	-572.753906	-430.175751	-0.908397	4.183206	1.206107	30.900002	-63.300003	47.100002
214580304.0	-324.707001	-507.324188	-493.164032	6.923664	2.732824	-0.900763	32.550003	-63.600002	48.0
215549680.0	-411.132782	-759.277283	-629.394531	2.526718	2.465649	-0.29771	32.550003	-61.950001	47.700001
215730944.0	-593.261719	-936.523376	-899.414001	6.21374	1.656489	0.603053	32.100002	-62.700001	48.0
215938480.0	-365.722626	-746.58197	-532.714844	0.389313	4.61832	2.40458	31.800001	-62.700001	46.950001
216117760.0	-605.46875	-954.589783	-854.980408	-4.259542	8.366412	1.664122	32.850002	-63.150002	47.700001
216297488.0	-441.894501	-804.199158	-771.484314	-4.51145	3.977099	2.496183	32.850002	-62.400002	47.700001
216479552.0	-487.304657	-696.777283	-670.898376	3.709924	0.480916	4.229008	32.550003	-61.650002	46.950001
216659184.0	-284.179688	-580.078125	-417.968719	6.48855	-0.549618	1.89313	32.700001	-62.250004	46.800003
216839216.0	-442.382782	-632.324219	-480.468719	5.587786	0.717557	7.152672	33.600002	-61.950001	47.700001
217021104.0	-388.671844	-751.464783	-594.238281	2.458015	0.885496	1.496183	33.300003	-61.950001	46.950001
217201168.0	-611.328125	-914.062439	-897.949158	4.10687	1.129771	2.21374	33.450001	-61.050003	47.850002
218149952.0	-372.070282	-597.65625	-417.968719	3.48855	-2.671756	2.282443	33.900002	-62.400002	46.950001
218332192.0	-266.601563	-518.554688	-393.066376	7.923664	-2.618321	1.923664	33.75	-62.250004	47.550003
218513504.0	-446.777313	-708.984314	-539.550781	2.755725	0.541985	2.381679	33.600002	-62.400002	47.400002
218694688.0	-499.999969	-750.976501	-721.679626	5.229008	-0.877863	-1.206107	33.300003	-61.650002	47.400002
218877776.0	-498.535126	-833.984314	-740.234314	0.458015	4.091603	-2.687023	33.600002	-61.650002	46.650002
219059152.0	-563.476563	-958.496033	-852.539001	-2.374046	6.396946	-1.305344	32.700001	-61.500004	47.550003
219240816.0	-395.019501	-851.562439	-801.757751	-6.725191	4.740458	-0.916031	32.550003	-61.650002	47.700001
219424448.0	-415.527313	-930.17572	-818.847595	-3.679389	4.198473	-1.274809	34.200001	-61.800003	46.800003
219605792.0	-458.984344	-718.749939	-705.566345	-4.10687	3.671756	0.755725	33.75	-62.550003	47.850002
219786784.0	-286.132813	-523.4375	-401.855438	-3.053435	4.694656	-1.862595	33.75	-61.500004	46.5
220750080.0	-379.394501	-672.36322	-591.796875	-0.603053	2.038168	2.885496	33.600002	-62.700001	47.400002
220931888.0	-287.109375	-549.316406	-380.859344	-0.412214	3.824427	-3.793893	33.900002	-62.400002	47.400002
221115296.0	-290.039063	-534.667969	-480.468719	5.251908	0.419847	-1.343511	34.650002	-61.650002	47.400002
221296896.0	-226.074203	-461.425751	-232.910141	5.778626	-2.885496	1.29771	35.100002	-62.700001	48.450001
221478800.0	-363.281219	-660.64447	-556.152344	5.969466	-2.381679	-1.824427	33.600002	-60.450001	46.950001
221662384.0	-396.972626	-618.652344	-451.171844	4.625954	-2.351145	3.305344	33.75	-61.500004	48.300003
221844288.0	-374.999969	-682.617126	-519.53125	4.541985	-0.290076	2.709924	34.5	-61.500004	47.100002
222026112.0	-555.664063	-923.828064	-772.460876	4.21374	-1.198473	0.59542	35.25	-60.600002	46.800003
222210496.0	-483.398407	-790.527283	-684.08197	2.091603	-0.229008	2.694656	35.400002	-62.400002	48.450001
222392336.0	-527.832031	-875.976501	-785.64447	-3.312977	5.977099	-1.167939	34.950001	-60.600002	47.550003
223351408.0	-415.527313	-910.156189	-808.105408	-5.167939	5.152672	1.961832	35.25	-61.500004	47.850002
223534880.0	-576.660156	-929.687439	-908.203064	-6.21374	9.587787	1.793893	34.650002	-60.450001	46.650002
223716544.0	-404.296844	-675.781189	-568.359375	-1.908397	2.984733	0.725191	33.600002	-61.650002	47.400002
223898576.0	-312.5	-551.757813	-518.554688	2.198473	3.236641	0.503817	34.200001	-60.600002	46.800003
224082016.0	-166.01561	-451.660126	-272.949219	4.549618	0.725191	0.977099	34.650002	-62.400002	47.400002
224263728.0	-356.933563	-555.664063	-500.488251	7.740458	-0.992366	4.931298	35.850002	-61.200001	48.0
224445424.0	-367.187469	-633.300781	-453.124969	7.862596	-0.946565	2.381679	34.350002	-59.400002	47.400002
224629184.0	-339.355438	-664.062439	-481.933563	4.290076	-0.625954	-0.778626	35.400002	-60.900002	46.950001
224810976.0	-558.59375	-942.382751	-787.597595	1.10687	3.068702	-0.129771	35.100002	-60.450001	47.400002
224992672.0	-439.941376	-864.257751	-781.249939	-1.770992	3.679389	2.946565	35.400002	-60.900002	48.0
225951280.0	-471.679657	-921.386658	-864.257751	-3.763359	1.732824	-0.21374	35.400002	-60.150002	46.650002
226133072.0	-419.433563	-879.882751	-801.757751	-3.824427	1.839695	2.412214	35.550003	-60.600002	46.800003
226314352.0	-395.507782	-614.257813	-570.3125	-1.167939	2.496183	2.381679	35.550003	-60.300003	46.5
226496432.0	-304.199219	-519.042969	-372.070282	2.954198	1.183206	0.374046	36.150002	-60.900002	47.400002
226677984.0	-256.835938	-448.242157	-357.421844	6.015267	-0.061069	3.984733	35.25	-60.600002	47.550003
226859792.0	-172.851547	-474.609344	-259.765625	4.312977	-0.793893	3.847328	35.850002	-60.150002	46.950001
227043216.0	-328.613251	-612.304688	-501.953094	5.458015	-2.251908	0.305344	35.400002	-59.700001	47.700001
227224784.0	-378.906219	-659.667908	-437.011688	4.358778	-1.801527	0.603053	35.100002	-60.150002	47.700001
227406384.0	-461.914032	-888.671814	-736.816345	4.08397	-1.839695	3.21374	35.850002	-61.200001	48.0
227589952.0	-505.859344	-986.328064	-814.453064	0.015267	-0.267176	4.419847	36.75	-59.850002	46.800003
228547728.0	-610.351563	-918.945251	-885.253845	-2.748092	3.580153	3.541985	36.150002	-60.150002	47.400002
228726416.0	-430.175751	-655.761658	-662.109314	0.89313	1.076336	1.992366	36.300003	-59.850002	47.550003
228905584.0	-180.175766	-408.203094	-234.374985	0.19084	0.458015	2.0	35.25	-60.300003	47.550003
229080544.0	-437.988251	-826.171814	-744.140564	-4.526718	2.610687	1.076336	35.550003	-60.600002	48.300003
229256240.0	-330.078094	-600.585938	-488.769501	3.114504	0.526718	0.687023	35.400002	-60.450001	46.950001
229433104.0	-395.507782	-645.507751	-442.382782	-6.687023	3.274809	0.419847	36.0	-59.850002	47.100002
229608384.0	-489.257782	-843.749939	-811.523376	5.320611	1.396947	-1.068702	35.550003	-59.850002	47.550003
229783280.0	-245.117172	-510.742157	-353.515594	2.442748	-0.877863	-2.10687	36.150002	-60.450001	47.700001
229960800.0	-548.339844	-971.679626	-860.351501	-3.335878	4.290076	2.244275	36.150002	-59.400002	47.400002
230135824.0	-339.355438	-544.433594	-472.656219	4.396946	-2.442748	4.633588	35.100002	-58.950001	46.950001
231051984.0	-315.429688	-595.703125	-482.910126	-2.19084	1.816794	1.465649	36.900002	-59.400002	47.700001
231226912.0	-625.976563	-1005.859314	-933.593689	-0.381679	1.961832	-0.824427	35.100002	-61.200001	46.950001
231402192.0	-310.058594	-580.566406	-367.187469	3.59542	-2.221374	-1.10687	35.400002	-59.700001	47.400002
231579632.0	-361.328094	-737.792908	-547.363281	-6.068702	4.946565	-6.251908	34.650002	-60.900002	47.700001
231754688.0	-464.843719	-720.214783	-733.886658	7.320611	-3.122137	-2.48855	36.0	-60.300003	47.100002
231929680.0	-196.777328	-636.71875	-368.164032	-2.396947	2.992366	-1.458015	37.050003	-59.550003	48.600002
232106432.0	-436.035126	-859.86322	-798.339783	1.145038	-0.427481	1.717557	36.150002	-61.200001	47.400002
232281584.0	-236.32811	-546.386719	-404.785126	3.717557	-2.091603	1.061069	36.0	-59.550003	47.850002
232456656.0	-483.398407	-850.097595	-754.39447	-3.244275	2.473282	0.580153	35.100002	-59.700001	46.650002
232633488.0	-385.253876	-643.066345	-523.925781	2.312977	1.343511	0.793893	35.400002	-60.150002	48.0
233550384.0	-225.097641	-508.300751	-374.511688	1.832061	0.862595	-2.961832	36.150002	-59.700001	47.700001
233725792.0	-600.585938	-957.51947	-874.999939	-5.145038	4.603054	-1.450382	35.100002	-61.650002	47.400002
233902528.0	-435.058563	-618.164063	-551.757813	5.954198	-3.656489	-2.641221	34.950001	-60.600002	46.800003
234077616.0	-428.222626	-696.777283	-606.445313	-5.305344	4.656488	3.427481	35.25	-60.600002	48.600002
234252384.0	-502.441376	-765.136658	-745.117126	3.038168	-1.969466	-0.374046	34.950001	-60.600002	47.550003
234430208.0	-321.289032	-563.476563	-373.535126	-2.992366	2.099237	2.793893	35.400002	-61.200001	46.650002
234605120.0	-576.660156	-940.917908	-863.281189	1.694656	-0.564885	2.625954	34.650002	-61.200001	48.0
234780192.0	-229.980453	-483.886688	-369.628876	3.977099	0.160305	1.061069	35.100002	-61.200001	47.400002
234956448.0	-560.546875	-969.23822	-850.585876	-1.610687	7.549618	3.160305	36.150002	-60.900002	47.700001
235131904.0	-352.050751	-596.679688	-507.324188	3.396947	4.0	-0.442748	35.400002	-60.900002	46.950001
236050784.0	-324.707001	-563.476563	-430.664032	6.137404	-0.633588	2.175573	35.550003	-60.600002	47.100002
236228144.0	-369.628876	-735.839783	-526.367188	-3.114504	4.694656	2.374046	35.25	-60.600002	48.300003
236403328.0	-410.644501	-659.667908	-558.59375	6.59542	-2.587786	5.824428	36.300003	-59.550003	47.550003
236579152.0	-288.085938	-499.511688	-361.816376	-1.671756	1.954198	-0.564885	36.0	-61.050003	47.100002
236756176.0	-469.238251	-853.027283	-838.378845	4.442748	-1.78626	-0.114504	35.100002	-60.450001	46.650002
236931360.0	-193.847641	-478.027313	-228.027328	5.748092	0.053435	0.030534	36.900002	-60.900002	46.650002
237132672.0	-396.484344	-740.234314	-524.902344	-2.80916	4.022901	0.419847	35.400002	-60.450001	48.0
237306160.0	-366.210907	-602.050781	-471.679657	4.21374	-0.969466	1.152672	36.150002	-60.150002	46.200001
237479968.0	-484.374969	-860.351501	-726.074158	-2.694656	4.732824	0.572519	35.25	-60.600002	47.550003
237656400.0	-456.054657	-667.480408	-633.789063	6.427481	-1.053435	-0.129771	36.600002	-59.700001	47.400002
238650384.0	-392.578094	-729.492126	-519.53125	-5.480916	6.412214	-2.320611	34.950001	-60.300003	46.800003
238826848.0	-418.457001	-947.265564	-833.007751	-1.458015	5.770992	0.435115	37.200001	-60.450001	46.950001
239005728.0	-354.003876	-620.605469	-490.234344	5.473282	-0.129771	3.068702	35.25	-60.300003	46.5
239182320.0	-339.843719	-650.390564	-430.664032	-3.679389	4.633588	0.816794	36.0	-59.550003	47.850002
239359104.0	-498.046844	-839.843689	-784.667908	-3.129771	3.709924	0.541985	36.300003	-61.050003	45.75
239537952.0	-263.671875	-526.367188	-472.167938	7.80916	-1.969466	2.740458	34.950001	-60.300003	47.850002
239715744.0	-467.773407	-733.398376	-559.082031	-6.08397	4.412214	-0.648855	36.600002	-58.950001	46.950001
239893648.0	-451.171844	-875.976501	-825.195251	-0.954198	1.541985	1.80916	35.25	-59.550003	47.550003
240073472.0	-365.234344	-530.761719	-480.957001	5.908397	-3.778626	6.015267	36.75	-60.300003	47.100002
240251184.0	-395.996063	-589.84375	-423.828094	5.122138	0.160305	-0.580153	36.150002	-60.150002	46.950001
241250992.0	-470.214813	-876.464783	-687.499939	-1.221374	4.80916	-0.122137	37.200001	-60.450001	46.650002
241428912.0	-385.253876	-890.624939	-809.08197	0.854962	3.877863	1.099237	36.600002	-59.700001	47.700001
241606608.0	-208.496078	-520.996094	-302.246094	6.946565	-1.053435	-0.305344	36.75	-59.850002	47.850002
241786240.0	-383.789032	-695.80072	-530.761719	2.694656	2.618321	-1.778626	36.600002	-58.950001	46.950001
241964000.0	-578.125	-935.546814	-849.121033	-4.908397	4.053435	-2.51145	37.950001	-60.150002	47.400002
242141984.0	-420.410126	-690.429626	-619.628906	1.374046	3.793893	1.931298	36.0	-59.550003	47.100002
242321456.0	-280.761719	-524.414063	-456.054657	7.351145	-1.78626	-0.526718	37.200001	-59.700001	46.950001
242499360.0	-418.945282	-753.417908	-569.335938	-0.167939	2.366412	-0.030534	36.600002	-60.150002	46.950001
242677360.0	-484.863251	-844.23822	-779.785095	-3.458015	4.603054	-1.274809	37.050003	-59.100002	46.800003
242857312.0	-562.5	-886.230408	-834.472595	1.114504	-0.091603	2.114504	36.300003	-58.800003	47.100002
243851040.0	-358.398407	-561.523438	-410.156219	2.114504	-2.312977	2.694656	36.600002	-58.950001	47.700001
244029680.0	-502.441376	-923.339783	-764.160095	-0.801527	0.633588	3.022901	37.200001	-59.400002	47.700001
244210384.0	-555.175781	-922.851501	-881.347595	-5.007634	2.641221	0.618321	36.900002	-59.400002	48.0
244388880.0	-438.964813	-596.679688	-601.5625	3.992366	-1.419847	3.312977	37.050003	-59.550003	46.5
244567696.0	-289.0625	-572.265625	-426.757782	4.740458	-2.465649	4.633588	36.75	-58.350002	45.75
244748064.0	-398.437469	-622.558594	-459.472626	-3.732824	1.389313	0.633588	37.800003	-58.350002	47.100002
244926544.0	-604.980469	-920.410095	-858.886658	-4.816794	2.160305	-1.458015	36.900002	-58.500004	46.950001
245105216.0	-456.542938	-642.578064	-647.949158	-0.526718	1.656489	2.564885	37.800003	-59.850002	46.5
245285776.0	-149.902344	-442.871063	-264.648438	4.580153	-2.045802	2.320611	36.600002	-58.500004	47.400002
245464400.0	-434.082001	-722.656189	-598.632813	4.740458	-4.534351	4.862596	35.400002	-59.700001	47.400002
246448336.0	-419.921844	-722.167908	-599.609375	0.061069	-2.145038	-0.80916	37.5	-58.350002	46.800003
246628304.0	-510.742157	-845.703064	-785.156189	-7.137404	1.839695	-0.671756	36.150002	-59.400002	46.650002
246806656.0	-385.253876	-651.367126	-568.359375	2.381679	-4.114504	1.030534	37.200001	-59.400002	48.0
246984864.0	-245.117172	-453.124969	-353.515594	6.450382	-8.305344	0.0	36.75	-59.850002	46.800003
247165392.0	-462.402313	-737.792908	-541.992188	-3.709924	-0.763359	-0.618321	35.400002	-58.950001	47.400002
247343552.0	-448.242157	-851.562439	-807.128845	-5.221374	4.259542	-4.312977	36.0	-59.550003	47.550003
247521936.0	-382.812469	-584.960938	-506.835907	3.396947	-5.503817	-0.48855	37.050003	-59.550003	47.550003
247701152.0	-341.308563	-557.617188	-418.457001	-6.358778	3.587786	-0.679389	36.300003	-60.600002	47.100002
247876608.0	-579.589844	-964.843689	-895.01947	1.961832	-2.51145	-2.717557	36.0	-60.600002	47.550003
248052000.0	-227.050766	-486.328094	-355.468719	0.183206	-1.977099	1.305344	34.950001	-61.500004	47.850002
249047264.0	-633.789063	-922.36322	-866.699158	-5.08397	1.648855	0.885496	35.550003	-60.300003	47.550003
249224128.0	-378.906219	-554.6875	-521.484375	4.740458	-5.480916	1.198473	35.100002	-60.900002	48.450001
249402144.0	-354.492157	-605.46875	-520.507813	2.977099	-6.320611	-0.267176	35.400002	-61.200001	47.700001
249581840.0	-471.191376	-868.164001	-786.132751	-5.015267	3.931298	-0.748092	34.5	-61.050003	48.300003
249760112.0	-438.476532	-776.367126	-709.472595	-4.419847	0.435115	-1.496183	35.400002	-62.700001	48.0
249938688.0	-311.523438	-574.707031	-517.578125	-3.198473	-1.541985	0.427481	34.350002	-59.700001	47.400002
250189920.0	-167.480453	-383.789032	-288.085938	-3.435115	-1.48855	-2.549618	34.5	-61.800003	47.550003
250369776.0	-585.9375	-977.05072	-919.433533	2.206107	-3.923664	-2.175573	34.350002	-61.650002	47.700001
250548272.0	-465.820282	-933.105408	-773.437439	-2.244275	0.419847	-2.381679	33.0	-61.800003	46.800003
250729808.0	-106.445305	-360.351532	-296.875	0.328244	-2.381679	-0.099237	34.200001	-62.250004	48.300003
251651616.0	-248.04686	-497.558563	-363.281219	-5.610687	-0.725191	-1.335878	32.700001	-63.000004	48.600002
251830592.0	-428.710907	-681.152283	-698.242126	2.656489	-4.473282	-1.778626	32.850002	-61.950001	46.950001
252010896.0	-579.589844	-978.027283	-844.23822	2.10687	-4.725191	0.931298	31.200001	-63.300003	47.550003
252190000.0	-240.23436	-603.027344	-449.707001	-5.954198	2.755725	-1.70229	32.850002	-61.650002	46.950001
252368688.0	-305.175781	-597.167969	-560.058594	-0.236641	-3.442748	-0.496183	30.900002	-63.000004	46.5
252549360.0	-603.515625	-1021.972595	-868.164001	2.564885	-1.236641	-1.755725	31.500002	-64.050003	46.800003
252727968.0	-233.886703	-478.027313	-333.496063	-0.21374	-1.854962	-2.854962	31.800001	-61.200001	45.900002
252907136.0	-586.425781	-1016.601501	-915.527283	-6.305344	3.221374	-2.396947	30.6	-63.150002	46.650002
253087600.0	-212.89061	-514.160156	-444.335907	3.549618	-5.183206	0.557252	30.900002	-62.550003	47.550003
253266656.0	-516.113281	-875.48822	-677.734314	-4.748092	1.687023	-0.984733	29.400002	-63.300003	46.800003
254247808.0	-163.574203	-394.531219	-413.085907	4.08397	-4.694656	-0.251908	29.85	-63.150002	46.650002
254428032.0	-438.476532	-904.785095	-705.566345	-5.320611	-0.877863	-0.221374	30.450001	-64.050003	46.800003
254606768.0	-121.093742	-445.312469	-387.207001	8.114504	-5.885496	-3.450382	29.700001	-64.800003	47.550003
254785328.0	-443.847626	-741.699158	-561.523438	-7.259542	3.564885	-2.732824	29.250002	-63.600002	46.200001
254965536.0	-518.066406	-890.136658	-844.23822	5.763359	-3.748092	-0.916031	30.450001	-64.050003	45.75
255143840.0	-391.601532	-648.437439	-555.175781	-4.70229	1.122137	-1.229008	28.200001	-64.5	45.300003
255322480.0	-554.6875	-903.808533	-798.828064	3.145038	0.053435	1.961832	28.650002	-63.750004	47.550003
255502640.0	-298.339844	-683.593689	-506.835907	-2.923664	0.740458	0.366412	28.950001	-64.800003	47.100002
255680976.0	-542.480469	-967.773376	-908.691345	-1.061069	-1.053435	2.21374	28.800001	-65.100006	46.650002
255860528.0	-150.390625	-420.898407	-335.937469	5.145038	-3.549618	1.625954	28.650002	-64.050003	47.550003
256850672.0	-373.046844	-839.355408	-663.085876	-5.030534	1.007634	-0.473282	27.150002	-65.700005	45.300003
257028640.0	-378.906219	-621.09375	-629.882813	5.068702	-6.603054	0.900763	27.300001	-65.400002	47.700001
257208672.0	-317.382813	-604.980469	-501.953094	-4.824428	4.664122	-3.854962	28.050001	-65.400002	46.650002
257386560.0	-244.628891	-603.515625	-534.179688	5.816794	-3.816794	0.694656	28.500002	-65.100006	46.200001
257564992.0	-451.660126	-670.898376	-519.53125	-5.442748	3.572519	-3.129771	26.550001	-64.350006	46.950001
257744768.0	-582.519531	-968.261658	-889.160095	1.396947	-1.419847	-3.664122	27.750002	-64.650002	46.200001
257923024.0	-319.824219	-550.292969	-480.468719	-4.931298	-0.984733	1.763359	27.900002	-65.25	46.800003
258100960.0	-596.679688	-966.796814	-812.98822	-5.007634	-2.312977	-2.221374	25.650002	-64.800003	46.050003
258281264.0	-190.429672	-395.019501	-336.425751	2.099237	-3.267176	-1.938931	25.650002	-65.25	46.5
258459328.0	-545.898438	-965.33197	-845.214783	-0.59542	-5.0	-2.007634	25.35	-64.800003	46.050003
259450992.0	-611.328125	-991.699158	-836.914001	0.251908	-6.458015	-1.282443	24.900002	-65.25	45.75
259625328.0	-353.027313	-739.746033	-580.566406	-6.984733	2.229008	-2.900763	24.900002	-65.25	46.5
259803152.0	-496.582001	-899.414001	-872.558533	0.89313	-3.549618	-2.900763	24.6	-64.800003	45.75
259982800.0	-253.417953	-497.070282	-407.226532	-3.167939	-2.160305	-1.030534	23.550001	-66.75	45.300003
260160704.0	-362.792938	-770.996033	-648.92572	1.435115	-5.396946	-4.305344	24.450001	-66.150002	45.150002
260338464.0	-363.281219	-638.671875	-456.054657	-2.358779	0.51145	-3.763359	24.150002	-67.200005	45.0
260518032.0	-593.261719	-1010.253845	-938.476501	-1.687023	-2.526718	0.045802	23.550001	-66.450005	44.550003
260695936.0	-178.222641	-412.109344	-359.863251	-3.351145	-0.091603	-1.816794	22.950001	-65.400002	44.850002
260873744.0	-624.511719	-985.839783	-844.726501	-6.167939	-2.0	-0.152672	22.800001	-66.75	44.550003
261054160.0	-200.195297	-398.925751	-357.421844	-3.458015	-4.152672	-3.503817	21.6	-66.0	43.950001
262051200.0	-221.679672	-443.847626	-394.042938	1.59542	-5.755725	-3.572519	22.050001	-66.0	43.5
262232336.0	-549.804688	-963.378845	-810.058533	-7.442748	1.160305	-2.114504	21.150002	-65.850006	41.850002
262411472.0	-145.996094	-345.214813	-321.777313	4.70229	-4.931298	-3.450382	20.1	-66.450005	43.5
262590384.0	-529.785156	-937.98822	-793.945251	-8.152672	1.671756	-2.862595	19.050001	-65.700005	43.200001
262771712.0	-402.832001	-739.746033	-665.527283	3.641221	-8.679389	-1.80916	19.800001	-66.450005	42.75
262951136.0	-427.246063	-688.964783	-559.082031	-7.709924	0.541985	-4.564886	20.400002	-65.850006	42.900002
263129808.0	-452.148407	-828.124939	-714.843689	3.21374	-4.969466	-1.198473	18.75	-66.0	43.200001
263310256.0	-294.433594	-569.335938	-461.914032	-0.145038	-4.572519	-0.099237	19.050001	-66.75	41.700001
263488768.0	-530.761719	-983.886658	-948.730408	1.114504	-4.59542	-1.900763	19.200001	-66.150002	42.300003
263667568.0	-196.777328	-432.128876	-338.867157	-5.648855	1.198473	-5.51145	18.450001	-65.100006	41.550003
264650320.0	-524.902344	-861.816345	-773.92572	3.21374	-6.290076	-3.045802	18.0	-66.0	41.400002
264829088.0	-382.324188	-652.343689	-548.828125	-7.816794	-0.083969	-0.977099	18.300001	-66.450005	41.400002
265007920.0	-479.003876	-749.023376	-626.464844	2.083969	-6.137404	-1.343511	17.700001	-65.400002	40.800003
265188768.0	-282.226563	-645.01947	-523.925781	-6.10687	-1.320611	-1.603053	17.700001	-65.850006	39.0
265367136.0	-444.824188	-806.152283	-799.316345	4.08397	-4.251908	-1.557252	17.25	-65.700005	40.650002
265545552.0	-345.214813	-666.503845	-543.945313	-5.358778	-0.381679	-4.557252	16.35	-66.150002	41.550003
265726112.0	-316.894531	-784.179626	-647.460876	2.351145	-5.70229	-1.717557	17.1	-64.650002	40.050003
265904496.0	-366.699188	-604.492188	-430.664032	-3.59542	-2.480916	-1.244275	17.1	-65.400002	39.75
266083136.0	-644.531189	-1020.996033	-929.199158	-0.763359	-0.335878	-0.763359	16.800001	-64.800003	38.400002
266263264.0	-255.85936	-396.972626	-398.437469	-6.900764	-0.320611	0.572519	15.450001	-65.25	40.200001
267247024.0	-545.898438	-892.578064	-872.558533	2.267176	-3.969466	1.496183	15.150001	-65.400002	38.25
267425104.0	-282.226563	-510.742157	-423.828094	-3.412214	0.19084	-0.992366	16.050001	-65.700005	37.650002
267605120.0	-509.277313	-836.914001	-742.187439	1.908397	0.19084	-1.78626	16.050001	-63.300003	39.450001
267783280.0	-270.019531	-562.5	-337.402313	1.89313	-0.083969	-2.519084	15.750001	-64.800003	38.850002
267961264.0	-608.886719	-1050.78125	-945.312439	-3.885496	1.259542	1.671756	14.85	-65.100006	38.550003
268141120.0	-198.730453	-370.117157	-390.136688	4.923664	-3.435115	-0.045802	14.400001	-66.900002	38.550003
268320096.0	-548.828125	-994.140564	-805.17572	-4.290076	0.541985	-0.557252	15.6	-65.100006	38.25
268498624.0	-125.488274	-394.531219	-330.566376	7.236641	-3.40458	-2.038168	15.900001	-65.400002	37.950001
268679360.0	-400.390594	-683.105408	-517.089844	-5.862596	4.175572	-1.534351	13.950001	-65.25	38.100002
268857760.0	-509.765594	-871.58197	-801.26947	-3.80916	0.480916	-2.916031	13.950001	-64.5	37.650002
269852288.0	-336.914032	-731.445251	-647.460876	-0.21374	1.748092	-4.206107	15.150001	-65.400002	38.550003
270032864.0	-278.808594	-504.394501	-369.140594	0.442748	-0.091603	-0.274809	15.6	-64.350006	37.5
270211264.0	-601.5625	-953.124939	-891.11322	-3.793893	2.648855	1.59542	14.250001	-63.750004	37.650002
270390144.0	-207.031235	-424.804657	-421.874969	3.167939	-5.862596	-1.419847	15.000001	-66.0	37.050003
270571968.0	-395.019501	-744.140564	-609.375	-2.854962	5.374046	-0.259542	15.750001	-65.700005	37.350002
270752480.0	-334.472626	-771.484314	-632.8125	2.465649	-1.091603	-1.770992	14.250001	-64.050003	37.350002
270931968.0	-341.796844	-597.65625	-386.718719	0.374046	1.328244	-2.427481	15.000001	-64.800003	36.300003
271110976.0	-602.539063	-954.589783	-899.902283	1.480916	-1.122137	0.679389	13.05	-65.100006	37.5
271288160.0	-252.929672	-448.242157	-412.109344	-4.89313	0.78626	0.580153	14.700001	-65.25	36.600002
271465344.0	-526.855469	-874.511658	-753.417908	5.435114	-1.381679	3.671756	14.1	-63.900002	36.75
272449312.0	-324.218719	-581.542969	-475.585907	-4.847328	2.389313	0.534351	14.700001	-64.800003	37.350002
272626688.0	-260.253906	-664.062439	-556.152344	7.221374	-3.427481	1.129771	15.750001	-64.800003	38.100002
272805632.0	-439.941376	-646.484314	-487.792938	-3.412214	1.755725	-0.114504	14.1	-65.400002	36.75
272983136.0	-574.707031	-963.867126	-871.093689	4.908397	-2.908397	0.534351	14.400001	-65.400002	37.5
273160448.0	-370.605438	-633.789063	-523.925781	-2.435115	2.900763	2.29771	15.000001	-63.750004	38.850002
273339520.0	-576.660156	-944.824158	-778.808533	3.694656	-2.679389	2.038168	14.400001	-64.650002	38.25
273516608.0	-394.042938	-735.839783	-587.402344	-6.267176	0.900763	3.198473	14.85	-63.900002	36.450001
273694144.0	-475.585907	-826.660095	-783.691345	5.374046	-0.854962	1.534351	13.05	-65.100006	37.5
273872224.0	-307.617188	-587.402344	-469.726532	-3.839695	4.007634	-1.007634	14.1	-64.650002	37.200001
274048992.0	-211.914047	-570.3125	-496.582001	-4.206107	1.816794	1.145038	13.650001	-63.900002	37.5
275042112.0	-391.601532	-726.074158	-710.937439	5.412214	-1.557252	-1.236641	14.250001	-64.050003	37.050003
275220864.0	-307.617188	-544.433594	-420.898407	-3.977099	4.870229	-2.030534	14.1	-64.350006	37.950001
275397824.0	-191.894516	-591.308594	-473.144501	8.160305	-4.312977	0.900763	14.400001	-65.850006	37.5
275574240.0	-516.601563	-803.222595	-650.390564	-3.870229	3.839695	-3.458015	14.250001	-64.050003	36.600002
275753344.0	-406.249969	-711.914001	-638.183594	3.969466	-0.725191	3.625954	14.400001	-64.650002	38.25
275930272.0	-538.085938	-943.359314	-727.539001	-2.862595	5.29771	-2.48855	14.1	-65.850006	36.75
276107808.0	-235.839828	-521.484375	-359.863251	3.59542	-3.679389	-1.305344	13.200001	-64.050003	36.600002
276286816.0	-490.722626	-878.417908	-728.515564	-3.076336	4.053435	0.671756	14.400001	-63.900002	35.700001
276463872.0	-222.656235	-458.496063	-475.585907	2.053435	-4.580153	-1.206107	14.85	-63.900002	37.5
276641056.0	-564.941406	-984.374939	-814.453064	4.847328	-3.465649	-1.541985	13.950001	-64.800003	36.300003
277637920.0	-495.117157	-901.367126	-772.949158	-5.679389	3.10687	2.061069	14.700001	-64.5	37.050003
277814848.0	-217.773422	-416.992157	-434.082001	0.236641	0.10687	-2.068702	13.950001	-63.750004	35.100002
277991872.0	-575.683594	-895.01947	-803.222595	-4.389313	1.160305	2.045802	13.500001	-64.5	36.300003
278171168.0	-139.160156	-320.3125	-302.246094	6.48855	-2.824427	1.992366	14.700001	-64.800003	37.350002
278348512.0	-529.296875	-1006.835876	-799.804626	-3.458015	4.541985	0.900763	13.650001	-64.650002	36.450001
278525472.0	-188.964828	-458.984344	-385.253876	6.175572	-3.259542	2.076336	13.200001	-64.050003	34.5
278704448.0	-505.859344	-840.820251	-698.242126	-4.70229	4.541985	-0.938931	15.450001	-63.000004	36.600002
278881536.0	-394.042938	-682.617126	-565.917969	4.396946	-1.816794	1.435115	14.250001	-64.050003	36.300003
279058944.0	-330.078094	-691.406189	-570.800781	-3.763359	2.244275	-1.068702	13.950001	-64.5	37.050003
279236832.0	-489.746063	-914.062439	-873.535095	6.671756	-2.656489	2.885496	13.500001	-63.750004	35.850002
280155712.0	-399.902313	-691.89447	-523.925781	-5.931298	1.557252	3.541985	13.500001	-65.700005	36.300003
280331968.0	-146.484375	-524.414063	-440.429657	5.312977	-3.549618	0.29771	13.650001	-64.350006	35.400002
280510304.0	-407.714813	-696.289001	-540.039063	-6.625954	4.755725	-2.671756	14.400001	-63.900002	35.400002
280687040.0	-480.957001	-841.796814	-766.11322	-0.946565	5.59542	-1.824427	12.3	-63.150002	36.450001
280888416.0	-230.957016	-460.449188	-327.636688	-0.854962	1.236641	-1.931298	13.35	-65.100006	35.400002
281063488.0	-623.535156	-999.999939	-894.531189	0.427481	0.450382	-0.877863	13.35	-63.900002	36.450001
281238688.0	-311.035156	-479.492157	-429.199188	-4.251908	2.755725	0.48855	14.250001	-65.25	35.850002
281415264.0	-547.851563	-900.878845	-767.089783	4.328244	-4.358778	0.419847	13.35	-64.350006	36.75
281589984.0	-416.015594	-818.847595	-659.179626	-5.045802	4.458015	1.40458	13.200001	-64.800003	35.550003
281764608.0	-264.648438	-470.214813	-490.722626	4.89313	-2.633588	1.80916	13.200001	-64.050003	34.800003
282747360.0	-437.011688	-720.214783	-568.359375	-4.167939	6.366412	-3.129771	14.250001	-64.5	37.350002
282922016.0	-289.0625	-685.058533	-513.183594	5.10687	-3.022901	1.954198	13.950001	-64.050003	35.550003
283098368.0	-541.992188	-908.691345	-756.835876	-3.396947	5.122138	-0.221374	13.500001	-64.5	37.050003
283274496.0	-244.628891	-476.562469	-335.449188	5.48855	-1.450382	0.251908	13.500001	-64.800003	36.600002
283453568.0	-418.945282	-881.835876	-678.710876	-3.480916	6.129771	-0.465649	13.35	-63.600002	36.450001
283632864.0	-441.406219	-874.511658	-825.195251	4.274809	-4.91603	5.282443	13.05	-63.900002	36.450001
283810016.0	-313.964844	-543.945313	-449.218719	-2.458015	5.21374	-0.557252	13.650001	-64.650002	36.450001
283987104.0	-291.992188	-717.773376	-595.703125	1.656489	0.221374	0.427481	14.1	-63.900002	36.0
284166080.0	-307.617188	-543.945313	-371.093719	2.312977	0.603053	-1.59542	14.1	-64.650002	36.0
284342976.0	-622.558594	-980.468689	-902.83197	4.534351	1.389313	1.633588	13.200001	-63.300003	37.050003
285337440.0	-401.855438	-657.714783	-553.222656	-4.709924	7.732824	0.389313	13.35	-64.650002	37.200001
285514144.0	-476.074188	-784.179626	-671.874939	5.526718	1.59542	1.977099	13.500001	-63.300003	35.550003
285689312.0	-381.347626	-814.941345	-625.976563	-5.114504	2.167939	2.633588	14.250001	-63.300003	36.300003
285864384.0	-346.191376	-498.535126	-545.410156	6.458015	-1.145038	0.450382	13.200001	-64.5	35.850002
286041088.0	-557.617188	-884.765564	-726.562439	1.984733	-1.664122	5.931298	13.950001	-64.5	35.550003
286215456.0	-257.324219	-515.136719	-415.039032	-3.900763	-0.229008	2.022901	13.200001	-65.25	35.550003
286390240.0	-517.089844	-932.128845	-830.566345	5.763359	-2.572519	1.175573	13.200001	-64.050003	37.050003
286566304.0	-326.171844	-574.21875	-456.054657	-3.954198	3.557252	-0.824427	13.35	-64.350006	36.0
286740384.0	-218.261703	-495.605438	-449.707001	5.10687	-1.587786	-1.419847	13.500001	-64.5	35.550003
286914720.0	-566.40625	-1018.066345	-819.824158	3.335878	-1.038168	-0.022901	14.250001	-64.800003	36.600002
287847712.0	-551.269531	-948.242126	-839.355408	4.396946	-1.099237	-0.007634	14.250001	-65.25	37.050003
288020896.0	-398.437469	-576.171875	-513.671875	-3.648855	5.129771	0.694656	12.750001	-65.700005	36.600002
288193344.0	-230.957016	-477.539032	-350.097626	-0.671756	2.038168	1.099237	13.650001	-64.650002	36.75
288367776.0	-636.71875	-1015.136658	-927.734314	8.068703	0.633588	-1.648855	14.1	-63.900002	36.0
288540448.0	-509.765594	-782.714783	-650.390564	-1.251908	1.900763	-0.160305	13.500001	-64.050003	36.300003
288713472.0	-249.511703	-491.210907	-357.421844	0.236641	2.725191	-0.656489	14.700001	-64.800003	37.050003
288888000.0	-633.300781	-975.585876	-937.011658	6.465649	-0.480916	-1.801527	14.250001	-63.300003	36.600002
289060864.0	-539.550781	-885.253845	-736.816345	-1.229008	-0.366412	2.396947	14.400001	-63.900002	35.400002
289233920.0	-343.261688	-527.832031	-378.906219	-2.755725	7.251908	-2.816794	14.1	-63.900002	36.75
289408064.0	-552.246094	-999.023376	-879.39447	9.312977	-1.908397	1.961832	14.700001	-63.300003	37.350002
290346880.0	-504.882782	-868.164001	-661.621033	2.083969	-1.870229	1.938931	13.500001	-64.5	36.300003
290518944.0	-275.878906	-442.382782	-341.308563	-5.137404	2.48855	2.068702	15.450001	-63.750004	36.600002
290693536.0	-239.257797	-630.859375	-537.597656	0.625954	-1.21374	1.358779	13.500001	-63.750004	36.600002
290865856.0	-581.054688	-990.234314	-916.503845	7.908397	-4.832061	3.381679	12.750001	-64.800003	37.650002
